Typical Measured Spectrum of Semrock NF03-594E Optical Filter	
For wavelengths between 320 and 1120 nm, values near or below 3e-7 (Optical Density 6.5) are measurement noise limited.
For wavelengths < 320 nm and > 1120 nm, values near or below 3e-6 (Optical Density 5.5) are measurement noise limited. 
Data format:  Wavelength (nm) <tab> Transmission (0 to 1)
340.0	0.01875
340.2	0.01852
340.4	0.01864
340.6	0.01872
340.8	0.01883
341.0	0.01899
341.2	0.01886
341.4	0.01912
341.6	0.01918
341.8	0.01928
342.0	0.01925
342.2	0.01929
342.4	0.01959
342.6	0.01949
342.8	0.01974
343.0	0.01996
343.2	0.02013
343.4	0.02087
343.6	0.02191
343.8	0.02679
344.0	0.0526
344.2	0.14337
344.4	0.34056
344.6	0.52875
344.8	0.63374
345.0	0.70464
345.2	0.73681
345.4	0.74837
345.6	0.76356
345.8	0.77478
346.0	0.77917
346.2	0.78651
346.4	0.79788
346.6	0.80103
346.8	0.79753
347.0	0.80637
347.2	0.80839
347.4	0.80618
347.6	0.80813
347.8	0.82125
348.0	0.82271
348.2	0.80806
348.4	0.8011
348.6	0.81123
348.8	0.82657
349.0	0.8231
349.2	0.82218
349.4	0.82614
349.6	0.83855
349.8	0.84268
350.0	0.83967
350.2	0.84894
350.4	0.85444
350.6	0.85011
350.8	0.84509
351.0	0.84638
351.2	0.85524
351.4	0.85692
351.6	0.85358
351.8	0.85475
352.0	0.86546
352.2	0.86654
352.4	0.8585
352.6	0.85641
352.8	0.85749
353.0	0.86548
353.2	0.86683
353.4	0.86651
353.6	0.87155
353.8	0.87945
354.0	0.87786
354.2	0.8741
354.4	0.87307
354.6	0.87439
354.8	0.87936
355.0	0.87656
355.2	0.88131
355.4	0.88536
355.6	0.8916
355.8	0.89373
356.0	0.89028
356.2	0.89116
356.4	0.89186
356.6	0.89157
356.8	0.89054
357.0	0.89084
357.2	0.89556
357.4	0.90198
357.6	0.90439
357.8	0.90238
358.0	0.90175
358.2	0.90441
358.4	0.90206
358.6	0.89851
358.8	0.89416
359.0	0.89309
359.2	0.89781
359.4	0.90334
359.6	0.90436
359.8	0.90515
360.0	0.90876
360.2	0.91237
360.4	0.90711
360.6	0.90259
360.8	0.9029
361.0	0.90574
361.2	0.91018
361.4	0.91092
361.6	0.91038
361.8	0.91485
362.0	0.91941
362.2	0.92398
362.4	0.92127
362.6	0.91735
362.8	0.91757
363.0	0.91882
363.2	0.91923
363.4	0.91402
363.6	0.91341
363.8	0.91542
364.0	0.91916
364.2	0.91853
364.4	0.91787
364.6	0.9194
364.8	0.92223
365.0	0.92368
365.2	0.92505
365.4	0.9214
365.6	0.917
365.8	0.91824
366.0	0.92015
366.2	0.92125
366.4	0.91787
366.6	0.91824
366.8	0.92393
367.0	0.93032
367.2	0.93165
367.4	0.92789
367.6	0.92091
367.8	0.92154
368.0	0.92819
368.2	0.92935
368.4	0.92277
368.6	0.9107
368.8	0.90693
369.0	0.91539
369.2	0.93009
369.4	0.93505
369.6	0.93182
369.8	0.92392
370.0	0.92461
370.2	0.9326
370.4	0.93914
370.6	0.93729
370.8	0.92754
371.0	0.92145
371.2	0.92073
371.4	0.93035
371.6	0.93318
371.8	0.93132
372.0	0.926
372.2	0.92513
372.4	0.93594
372.6	0.94285
372.8	0.94382
373.0	0.93761
373.2	0.93383
373.4	0.93467
373.6	0.94031
373.8	0.94266
374.0	0.93573
374.2	0.92724
374.4	0.92615
374.6	0.93288
374.8	0.94048
375.0	0.94292
375.2	0.93893
375.4	0.93597
375.6	0.93788
375.8	0.94495
376.0	0.95014
376.2	0.94611
376.4	0.93893
376.6	0.93549
376.8	0.9376
377.0	0.93993
377.2	0.94141
377.4	0.93696
377.6	0.93156
377.8	0.93071
378.0	0.93907
378.2	0.94878
378.4	0.95078
378.6	0.94624
378.8	0.94021
379.0	0.93916
379.2	0.94296
379.4	0.94959
379.6	0.94855
379.8	0.94332
380.0	0.93455
380.2	0.93512
380.4	0.93984
380.6	0.9468
380.8	0.94718
381.0	0.94117
381.2	0.93758
381.4	0.9368
381.6	0.94633
381.8	0.95402
382.0	0.95735
382.2	0.95039
382.4	0.94264
382.6	0.93938
382.8	0.94398
383.0	0.94792
383.2	0.94923
383.4	0.94301
383.6	0.93756
383.8	0.93606
384.0	0.94224
384.2	0.94943
384.4	0.95324
384.6	0.95081
384.8	0.9454
385.0	0.94325
385.2	0.94924
385.4	0.95503
385.6	0.95994
385.8	0.95608
386.0	0.94778
386.2	0.94304
386.4	0.94127
386.6	0.94707
386.8	0.95197
387.0	0.95161
387.2	0.94637
387.4	0.94207
387.6	0.94608
387.8	0.95217
388.0	0.95856
388.2	0.96192
388.4	0.95813
388.6	0.95231
388.8	0.94939
389.0	0.95375
389.2	0.95923
389.4	0.96176
389.6	0.95717
389.8	0.94925
390.0	0.94305
390.2	0.94349
390.4	0.94928
390.6	0.95476
390.8	0.95564
391.0	0.95044
391.2	0.94576
391.4	0.94627
391.6	0.95213
391.8	0.96126
392.0	0.96566
392.2	0.96387
392.4	0.95801
392.6	0.95163
392.8	0.95331
393.0	0.95611
393.2	0.96191
393.4	0.96156
393.6	0.95448
393.8	0.94736
394.0	0.94418
394.2	0.94652
394.4	0.95215
394.6	0.96008
394.8	0.96152
395.0	0.9563
395.2	0.95236
395.4	0.95266
395.6	0.959
395.8	0.96575
396.0	0.97075
396.2	0.9646
396.4	0.95844
396.6	0.95021
396.8	0.94718
397.0	0.95203
397.2	0.95833
397.4	0.96082
397.6	0.95581
397.8	0.94954
398.0	0.94289
398.2	0.94522
398.4	0.95017
398.6	0.9595
398.8	0.96492
399.0	0.95882
399.2	0.95433
399.4	0.94585
399.6	0.94593
399.8	0.95279
400.0	0.958
400.2	0.96606
400.4	0.96257
400.6	0.9582
400.8	0.95145
401.0	0.94923
401.2	0.95031
401.4	0.95567
401.6	0.95865
401.8	0.96053
402.0	0.95886
402.2	0.95652
402.4	0.95662
402.6	0.96161
402.8	0.96741
403.0	0.96664
403.2	0.96585
403.4	0.95935
403.6	0.95472
403.8	0.95562
404.0	0.95951
404.2	0.96468
404.4	0.96635
404.6	0.96263
404.8	0.95669
405.0	0.94873
405.2	0.9473
405.4	0.94888
405.6	0.95446
405.8	0.96156
406.0	0.96385
406.2	0.96276
406.4	0.96179
406.6	0.9604
406.8	0.96107
407.0	0.96657
407.2	0.96894
407.4	0.97326
407.6	0.9699
407.8	0.9674
408.0	0.96483
408.2	0.96546
408.4	0.96767
408.6	0.97049
408.8	0.96993
409.0	0.96673
409.2	0.95954
409.4	0.95383
409.6	0.95529
409.8	0.95957
410.0	0.96449
410.2	0.96785
410.4	0.96712
410.6	0.96046
410.8	0.95234
411.0	0.94809
411.2	0.94904
411.4	0.95526
411.6	0.96496
411.8	0.97194
412.0	0.97115
412.2	0.96825
412.4	0.96064
412.6	0.95756
412.8	0.95461
413.0	0.95775
413.2	0.96056
413.4	0.96315
413.6	0.96445
413.8	0.96163
414.0	0.96002
414.2	0.96063
414.4	0.96332
414.6	0.96766
414.8	0.96992
415.0	0.97085
415.2	0.96687
415.4	0.96459
415.6	0.96261
415.8	0.96418
416.0	0.96847
416.2	0.97254
416.4	0.97295
416.6	0.97051
416.8	0.96533
417.0	0.95845
417.2	0.95587
417.4	0.95653
417.6	0.96206
417.8	0.96721
418.0	0.97016
418.2	0.96764
418.4	0.96376
418.6	0.95937
418.8	0.95827
419.0	0.96092
419.2	0.96722
419.4	0.97189
419.6	0.97469
419.8	0.9729
420.0	0.96809
420.2	0.96334
420.4	0.95979
420.6	0.9611
420.8	0.96443
421.0	0.96949
421.2	0.9742
421.4	0.97232
421.6	0.96885
421.8	0.96624
422.0	0.96143
422.2	0.96078
422.4	0.96354
422.6	0.9655
422.8	0.96744
423.0	0.96552
423.2	0.9602
423.4	0.9567
423.6	0.95499
423.8	0.95662
424.0	0.96102
424.2	0.96907
424.4	0.97395
424.6	0.97517
424.8	0.9727
425.0	0.96975
425.2	0.96581
425.4	0.96453
425.6	0.96592
425.8	0.96796
426.0	0.96975
426.2	0.96781
426.4	0.96512
426.6	0.96032
426.8	0.95689
427.0	0.95639
427.2	0.95812
427.4	0.96258
427.6	0.96836
427.8	0.971
428.0	0.97235
428.2	0.96878
428.4	0.96513
428.6	0.96178
428.8	0.9612
429.0	0.96387
429.2	0.96947
429.4	0.97374
429.6	0.97654
429.8	0.97692
430.0	0.97444
430.2	0.97235
430.4	0.96993
430.6	0.9698
430.8	0.97197
431.0	0.97315
431.2	0.97263
431.4	0.97056
431.6	0.9636
431.8	0.95772
432.0	0.95466
432.2	0.95286
432.4	0.95596
432.6	0.96207
432.8	0.96922
433.0	0.9732
433.2	0.97419
433.4	0.96904
433.6	0.96452
433.8	0.96058
434.0	0.95933
434.2	0.96258
434.4	0.9673
434.6	0.97221
434.8	0.97534
435.0	0.97603
435.2	0.97224
435.4	0.96919
435.6	0.96499
435.8	0.96411
436.0	0.9644
436.2	0.96607
436.4	0.96808
436.6	0.96913
436.8	0.96902
437.0	0.96653
437.2	0.9656
437.4	0.96565
437.6	0.96636
437.8	0.97021
438.0	0.97487
438.2	0.9773
438.4	0.97669
438.6	0.97514
438.8	0.97174
439.0	0.96998
439.2	0.96892
439.4	0.97217
439.6	0.97506
439.8	0.97963
440.0	0.98116
440.2	0.98087
440.4	0.97634
440.6	0.96983
440.8	0.96558
441.0	0.96278
441.2	0.96315
441.4	0.96591
441.6	0.96971
441.8	0.97408
442.0	0.97474
442.2	0.97272
442.4	0.96856
442.6	0.96494
442.8	0.96309
443.0	0.96397
443.2	0.9681
443.4	0.97491
443.6	0.97862
443.8	0.9816
444.0	0.9798
444.2	0.97733
444.4	0.97313
444.6	0.9697
444.8	0.96763
445.0	0.9701
445.2	0.97318
445.4	0.97565
445.6	0.97829
445.8	0.97805
446.0	0.97294
446.2	0.96869
446.4	0.96353
446.6	0.96003
446.8	0.9594
447.0	0.96178
447.2	0.96623
447.4	0.97018
447.6	0.97188
447.8	0.97195
448.0	0.97049
448.2	0.96917
448.4	0.96764
448.6	0.969
448.8	0.97206
449.0	0.97785
449.2	0.98346
449.4	0.98699
449.6	0.98751
449.8	0.98585
450.0	0.98301
450.2	0.97962
450.4	0.97741
450.6	0.97686
450.8	0.97881
451.0	0.9815
451.2	0.98284
451.4	0.98417
451.6	0.98079
451.8	0.97827
452.0	0.97332
452.2	0.96991
452.4	0.96891
452.6	0.97023
452.8	0.97233
453.0	0.97626
453.2	0.97893
453.4	0.97996
453.6	0.97807
453.8	0.97608
454.0	0.9732
454.2	0.97189
454.4	0.97223
454.6	0.97462
454.8	0.97762
455.0	0.9812
455.2	0.98314
455.4	0.98316
455.6	0.98226
455.8	0.97917
456.0	0.97543
456.2	0.9741
456.4	0.97247
456.6	0.97354
456.8	0.9753
457.0	0.97643
457.2	0.97776
457.4	0.9755
457.6	0.97361
457.8	0.96944
458.0	0.96684
458.2	0.96506
458.4	0.96617
458.6	0.96918
458.8	0.97179
459.0	0.97508
459.2	0.97976
459.4	0.97891
459.6	0.97781
459.8	0.97624
460.0	0.97422
460.2	0.97226
460.4	0.97324
460.6	0.97535
460.8	0.97786
461.0	0.98084
461.2	0.98183
461.4	0.98122
461.6	0.97867
461.8	0.97562
462.0	0.97219
462.2	0.97034
462.4	0.96945
462.6	0.96985
462.8	0.97249
463.0	0.97355
463.2	0.97635
463.4	0.97685
463.6	0.97478
463.8	0.97369
464.0	0.97127
464.2	0.97041
464.4	0.97107
464.6	0.97212
464.8	0.97433
465.0	0.97691
465.2	0.97839
465.4	0.97885
465.6	0.9783
465.8	0.97694
466.0	0.97399
466.2	0.97282
466.4	0.97308
466.6	0.97448
466.8	0.97653
467.0	0.97885
467.2	0.98073
467.4	0.98057
467.6	0.97952
467.8	0.9772
468.0	0.97258
468.2	0.96951
468.4	0.9688
468.6	0.96767
468.8	0.97023
469.0	0.97252
469.2	0.9737
469.4	0.97391
469.6	0.97336
469.8	0.9703
470.0	0.96849
470.2	0.96434
470.4	0.96243
470.6	0.96325
470.8	0.96473
471.0	0.96961
471.2	0.97245
471.4	0.97564
471.6	0.97867
471.8	0.97801
472.0	0.97632
472.2	0.97676
472.4	0.97404
472.6	0.97379
472.8	0.97518
473.0	0.97626
473.2	0.9796
473.4	0.98223
473.6	0.98163
473.8	0.98106
474.0	0.97765
474.2	0.97262
474.4	0.96925
474.6	0.96498
474.8	0.96373
475.0	0.9643
475.2	0.96592
475.4	0.96979
475.6	0.97264
475.8	0.9743
476.0	0.97437
476.2	0.97202
476.4	0.96727
476.6	0.96303
476.8	0.95979
477.0	0.95878
477.2	0.95984
477.4	0.96303
477.6	0.96896
477.8	0.97362
478.0	0.97923
478.2	0.98224
478.4	0.98397
478.6	0.98246
478.8	0.97918
479.0	0.97626
479.2	0.97267
479.4	0.97107
479.6	0.97163
479.8	0.97237
480.0	0.97362
480.2	0.97588
480.4	0.97547
480.6	0.97527
480.8	0.97334
481.0	0.97055
481.2	0.97003
481.4	0.96885
481.6	0.96877
481.8	0.97082
482.0	0.97347
482.2	0.97564
482.4	0.9762
482.6	0.97669
482.8	0.97452
483.0	0.97164
483.2	0.96765
483.4	0.96523
483.6	0.96436
483.8	0.96471
484.0	0.96888
484.2	0.97354
484.4	0.97947
484.6	0.98337
484.8	0.9864
485.0	0.9863
485.2	0.98467
485.4	0.98047
485.6	0.97551
485.8	0.97007
486.0	0.96803
486.2	0.96676
486.4	0.96782
486.6	0.97143
486.8	0.97547
487.0	0.97778
487.2	0.97977
487.4	0.978
487.6	0.97524
487.8	0.97086
488.0	0.9657
488.2	0.96166
488.4	0.96052
488.6	0.95974
488.8	0.9625
489.0	0.96701
489.2	0.97144
489.4	0.975
489.6	0.97837
489.8	0.97818
490.0	0.97589
490.2	0.97333
490.4	0.96974
490.6	0.96734
490.8	0.96596
491.0	0.96686
491.2	0.96939
491.4	0.97413
491.6	0.97784
491.8	0.98051
492.0	0.98187
492.2	0.98138
492.4	0.97924
492.6	0.97557
492.8	0.97198
493.0	0.96846
493.2	0.96763
493.4	0.96797
493.6	0.96964
493.8	0.97199
494.0	0.97541
494.2	0.9765
494.4	0.97667
494.6	0.97608
494.8	0.9733
495.0	0.9702
495.2	0.96667
495.4	0.96523
495.6	0.96264
495.8	0.96524
496.0	0.96859
496.2	0.97111
496.4	0.9749
496.6	0.97765
496.8	0.97855
497.0	0.97867
497.2	0.97631
497.4	0.9739
497.6	0.97015
497.8	0.96852
498.0	0.96994
498.2	0.97124
498.4	0.97438
498.6	0.97885
498.8	0.98121
499.0	0.98443
499.2	0.98522
499.4	0.9833
499.6	0.97892
499.8	0.97478
500.0	0.96596
500.2	0.95985
500.4	0.95934
500.6	0.95801
500.8	0.95951
501.0	0.96282
501.2	0.96348
501.4	0.96311
501.6	0.96316
501.8	0.95975
502.0	0.95483
502.2	0.95055
502.4	0.94733
502.6	0.94409
502.8	0.94344
503.0	0.94654
503.2	0.94855
503.4	0.95343
503.6	0.96024
503.8	0.96533
504.0	0.96806
504.2	0.97057
504.4	0.97119
504.6	0.96977
504.8	0.96819
505.0	0.96745
505.2	0.96613
505.4	0.96574
505.6	0.96759
505.8	0.9705
506.0	0.97236
506.2	0.97434
506.4	0.97547
506.6	0.97405
506.8	0.97094
507.0	0.96719
507.2	0.96229
507.4	0.95676
507.6	0.95206
507.8	0.95066
508.0	0.94882
508.2	0.9486
508.4	0.95147
508.6	0.95391
508.8	0.95518
509.0	0.95724
509.2	0.95884
509.4	0.95678
509.6	0.95472
509.8	0.95357
510.0	0.9521
510.2	0.94981
510.4	0.95148
510.6	0.95435
510.8	0.95668
511.0	0.96102
511.2	0.96638
511.4	0.96967
511.6	0.97193
511.8	0.97283
512.0	0.97281
512.2	0.9709
512.4	0.96709
512.6	0.96495
512.8	0.96355
513.0	0.96229
513.2	0.96263
513.4	0.96522
513.6	0.96837
513.8	0.97048
514.0	0.97345
514.2	0.97432
514.4	0.97404
514.6	0.97194
514.8	0.96882
515.0	0.96565
515.2	0.96028
515.4	0.95681
515.6	0.95521
515.8	0.95452
516.0	0.9542
516.2	0.95603
516.4	0.95846
516.6	0.95983
516.8	0.96136
517.0	0.96206
517.2	0.96169
517.4	0.95875
517.6	0.95707
517.8	0.95561
518.0	0.95462
518.2	0.95369
518.4	0.95551
518.6	0.95855
518.8	0.96162
519.0	0.96546
519.2	0.96996
519.4	0.97351
519.6	0.97497
519.8	0.97525
520.0	0.97499
520.2	0.97275
520.4	0.96934
520.6	0.96718
520.8	0.96612
521.0	0.96563
521.2	0.96573
521.4	0.9675
521.6	0.97034
521.8	0.97202
522.0	0.97396
522.2	0.9745
522.4	0.97469
522.6	0.97197
522.8	0.96827
523.0	0.96468
523.2	0.96193
523.4	0.95752
523.6	0.95439
523.8	0.95496
524.0	0.95556
524.2	0.95546
524.4	0.95687
524.6	0.95979
524.8	0.96061
525.0	0.96003
525.2	0.95987
525.4	0.95907
525.6	0.95717
525.8	0.95432
526.0	0.95279
526.2	0.95336
526.4	0.95322
526.6	0.95462
526.8	0.95947
527.0	0.9638
527.2	0.96755
527.4	0.97086
527.6	0.97485
527.8	0.97682
528.0	0.97624
528.2	0.97471
528.4	0.97298
528.6	0.97105
528.8	0.96805
529.0	0.96599
529.2	0.96633
529.4	0.96738
529.6	0.96845
529.8	0.97
530.0	0.97285
530.2	0.97512
530.4	0.97514
530.6	0.97394
530.8	0.9722
531.0	0.96889
531.2	0.9636
531.4	0.95858
531.6	0.9547
531.8	0.95242
532.0	0.95002
532.2	0.94921
532.4	0.95123
532.6	0.95381
532.8	0.95597
533.0	0.95813
533.2	0.96159
533.4	0.96303
533.6	0.96235
533.8	0.96126
534.0	0.96036
534.2	0.95872
534.4	0.95712
534.6	0.95536
534.8	0.95693
535.0	0.95904
535.2	0.96107
535.4	0.96464
535.6	0.96942
535.8	0.97333
536.0	0.97624
536.2	0.97801
536.4	0.97781
536.6	0.97676
536.8	0.97519
537.0	0.97205
537.2	0.96937
537.4	0.96776
537.6	0.96652
537.8	0.96572
538.0	0.966
538.2	0.96854
538.4	0.97077
538.6	0.97246
538.8	0.97352
539.0	0.97418
539.2	0.97368
539.4	0.97086
539.6	0.96668
539.8	0.96304
540.0	0.95998
540.2	0.95562
540.4	0.9525
540.6	0.95144
540.8	0.95164
541.0	0.95214
541.2	0.95315
541.4	0.95615
541.6	0.95961
541.8	0.96162
542.0	0.96214
542.2	0.96221
542.4	0.96228
542.6	0.96109
542.8	0.9588
543.0	0.9562
543.2	0.956
543.4	0.95704
543.6	0.95789
543.8	0.96027
544.0	0.96483
544.2	0.96869
544.4	0.97146
544.6	0.97447
544.8	0.97625
545.0	0.97749
545.2	0.97654
545.4	0.97407
545.6	0.97174
545.8	0.96995
546.0	0.96751
546.2	0.96618
546.4	0.96423
546.6	0.96535
546.8	0.96687
547.0	0.96806
547.2	0.96887
547.4	0.96909
547.6	0.97019
547.8	0.9691
548.0	0.96592
548.2	0.96187
548.4	0.95806
548.6	0.95413
548.8	0.95033
549.0	0.94622
549.2	0.94527
549.4	0.94682
549.6	0.94737
549.8	0.94829
550.0	0.95174
550.2	0.95683
550.4	0.95969
550.6	0.96095
550.8	0.9621
551.0	0.96243
551.2	0.96124
551.4	0.95968
551.6	0.95622
551.8	0.95401
552.0	0.95303
552.2	0.95369
552.4	0.95357
552.6	0.95502
552.8	0.9591
553.0	0.96396
553.2	0.96772
553.4	0.97129
553.6	0.97499
553.8	0.97619
554.0	0.97677
554.2	0.97545
554.4	0.97262
554.6	0.96925
554.8	0.96652
555.0	0.96338
555.2	0.96032
555.4	0.95948
555.6	0.95933
555.8	0.96093
556.0	0.96285
556.2	0.96376
556.4	0.96637
556.6	0.96695
556.8	0.9678
557.0	0.96665
557.2	0.96348
557.4	0.96053
557.6	0.95775
557.8	0.9546
558.0	0.95067
558.2	0.94809
558.4	0.94757
558.6	0.94876
558.8	0.94972
559.0	0.95091
559.2	0.95404
559.4	0.9579
559.6	0.96015
559.8	0.96196
560.0	0.96172
560.2	0.96175
560.4	0.96143
560.6	0.95942
560.8	0.95696
561.0	0.95452
561.2	0.95465
561.4	0.95638
561.6	0.95785
561.8	0.95898
562.0	0.96217
562.2	0.96629
562.4	0.97054
562.6	0.9727
562.8	0.97386
563.0	0.97395
563.2	0.97273
563.4	0.9701
563.6	0.96637
563.8	0.96193
564.0	0.95761
564.2	0.95559
564.4	0.95377
564.6	0.95307
564.8	0.95324
565.0	0.95443
565.2	0.95737
565.4	0.95995
565.6	0.96143
565.8	0.96246
566.0	0.96265
566.2	0.96163
566.4	0.95933
566.6	0.95559
566.8	0.95157
567.0	0.94764
567.2	0.94609
567.4	0.94483
567.6	0.94295
567.8	0.94287
568.0	0.94549
568.2	0.94873
568.4	0.95214
568.6	0.95374
568.8	0.95518
569.0	0.95681
569.2	0.95822
569.4	0.95578
569.6	0.95374
569.8	0.95094
570.0	0.94804
570.2	0.94742
570.4	0.94716
570.6	0.94716
570.8	0.94857
571.0	0.95227
571.2	0.95759
571.4	0.9614
571.6	0.96474
571.8	0.9671
572.0	0.96851
572.2	0.96897
572.4	0.96728
572.6	0.9646
572.8	0.96105
573.0	0.95754
573.2	0.95605
573.4	0.95537
573.6	0.95487
573.8	0.95595
574.0	0.95812
574.2	0.96093
574.4	0.96361
574.6	0.96467
574.8	0.96444
575.0	0.96211
575.2	0.95876
575.4	0.95503
575.6	0.95073
575.8	0.94536
576.0	0.94093
576.2	0.93825
576.4	0.93884
576.6	0.94091
576.8	0.94294
577.0	0.94585
577.2	0.94907
577.4	0.95199
577.6	0.95419
577.8	0.95384
578.0	0.95122
578.2	0.94769
578.4	0.94495
578.6	0.94405
578.8	0.94545
579.0	0.94647
579.2	0.94961
579.4	0.95384
579.6	0.95869
579.8	0.96096
580.0	0.96059
580.2	0.95674
580.4	0.95033
580.6	0.94183
580.8	0.93434
581.0	0.92955
581.2	0.92644
581.4	0.9207
581.6	0.9044
581.8	0.86754
582.0	0.8007
582.2	0.70584
582.4	0.59133
582.6	0.47366
582.8	0.36471
583.0	0.27024
583.2	0.20596
583.4	0.14108
583.6	0.09252
583.8	0.0588
584.0	0.03648
584.2	0.02225
584.4	0.01387
584.6	0.00819
584.8	0.00501
585.0	0.00315
585.2	0.002
585.4	0.00129
585.6	8.586e-04
585.8	5.6101e-04
586.0	4.1375e-04
586.2	2.8721e-04
586.4	2.0135e-04
586.6	1.453e-04
586.8	1.0739e-04
587.0	7.5239e-05
587.2	5.3378e-05
587.4	4.3126e-05
587.6	3.4839e-05
587.8	2.7467e-05
588.0	2.1654e-05
588.2	1.6558e-05
588.4	1.228e-05
588.6	1.0642e-05
588.8	9.2297e-06
589.0	7.8497e-06
589.2	6.5388e-06
589.4	5.4469e-06
589.6	4.2722e-06
589.8	3.6003e-06
590.0	3.289e-06
590.2	3.0046e-06
590.4	2.7417e-06
590.6	2.5016e-06
590.8	2.137e-06
591.0	1.6895e-06
591.2	1.6334e-06
591.4	1.5791e-06
591.6	1.4862e-06
591.8	1.3611e-06
592.0	1.2465e-06
592.2	1.1672e-06
592.4	1.1274e-06
592.6	1.1251e-06
592.8	1.1228e-06
593.0	1.0932e-06
593.2	1.0637e-06
593.4	9.964e-07
593.6	8.9636e-07
593.8	9.4625e-07
594.0	9.9893e-07
594.2	1.0004e-06
594.4	9.5243e-07
594.6	9.0675e-07
594.8	8.9879e-07
595.0	9.2045e-07
595.2	9.7453e-07
595.4	1.0318e-06
595.6	1.0838e-06
595.8	1.1384e-06
596.0	1.1513e-06
596.2	1.1185e-06
596.4	1.2285e-06
596.6	1.3526e-06
596.8	1.4704e-06
597.0	1.5755e-06
597.2	1.6881e-06
597.4	1.6781e-06
597.6	1.7983e-06
597.8	2.08e-06
598.0	2.4059e-06
598.2	2.7634e-06
598.4	3.174e-06
598.6	3.3829e-06
598.8	3.3355e-06
599.0	4.1862e-06
599.2	5.2666e-06
599.4	6.433e-06
599.6	7.6149e-06
599.8	9.014e-06
600.0	1.0014e-05
600.2	1.189e-05
600.4	1.5215e-05
600.6	1.9469e-05
600.8	2.4735e-05
601.0	3.1416e-05
601.2	3.8966e-05
601.4	4.7003e-05
601.6	6.5863e-05
601.8	9.229e-05
602.0	1.2855e-04
602.2	1.7798e-04
602.4	2.4641e-04
602.6	3.8244e-04
602.8	4.7593e-04
603.0	6.9794e-04
603.2	0.00103
603.4	0.00157
603.6	0.00249
603.8	0.00403
604.0	0.00679
604.2	0.0114
604.4	0.0199
604.6	0.03581
604.8	0.0644
605.0	0.11151
605.2	0.17738
605.4	0.28538
605.6	0.35001
605.8	0.40822
606.0	0.46797
606.2	0.53916
606.4	0.62542
606.6	0.72036
606.8	0.80914
607.0	0.87708
607.2	0.91983
607.4	0.93691
607.6	0.93499
607.8	0.92377
608.0	0.91786
608.2	0.91257
608.4	0.91164
608.6	0.91689
608.8	0.92482
609.0	0.93444
609.2	0.94578
609.4	0.95543
609.6	0.96127
609.8	0.96302
610.0	0.96202
610.2	0.95864
610.4	0.95439
610.6	0.95051
610.8	0.94832
611.0	0.94907
611.2	0.95071
611.4	0.95396
611.6	0.95802
611.8	0.96189
612.0	0.96631
612.2	0.96989
612.4	0.97214
612.6	0.97262
612.8	0.97227
613.0	0.96988
613.2	0.96802
613.4	0.9665
613.6	0.96524
613.8	0.96576
614.0	0.96671
614.2	0.96711
614.4	0.96881
614.6	0.97089
614.8	0.97311
615.0	0.97556
615.2	0.97604
615.4	0.97666
615.6	0.9761
615.8	0.97391
616.0	0.97175
616.2	0.96835
616.4	0.96721
616.6	0.96577
616.8	0.96334
617.0	0.96184
617.2	0.96083
617.4	0.96148
617.6	0.96305
617.8	0.96334
618.0	0.9641
618.2	0.96379
618.4	0.96219
618.6	0.96269
618.8	0.9607
619.0	0.95993
619.2	0.95777
619.4	0.95507
619.6	0.95241
619.8	0.94969
620.0	0.94833
620.2	0.94865
620.4	0.94942
620.6	0.95002
620.8	0.95071
621.0	0.9523
621.2	0.95517
621.4	0.95826
621.6	0.96088
621.8	0.96271
622.0	0.96399
622.2	0.96466
622.4	0.96454
622.6	0.96461
622.8	0.96385
623.0	0.96324
623.2	0.96259
623.4	0.96092
623.6	0.95943
623.8	0.9591
624.0	0.96087
624.2	0.9616
624.4	0.96367
624.6	0.96477
624.8	0.96666
625.0	0.96981
625.2	0.97272
625.4	0.97437
625.6	0.97621
625.8	0.97724
626.0	0.97663
626.2	0.97636
626.4	0.97462
626.6	0.97434
626.8	0.97252
627.0	0.97117
627.2	0.96924
627.4	0.96727
627.6	0.96594
627.8	0.96496
628.0	0.96544
628.2	0.96544
628.4	0.96662
628.6	0.96649
628.8	0.96653
629.0	0.96664
629.2	0.96768
629.4	0.96747
629.6	0.96771
629.8	0.96691
630.0	0.96546
630.2	0.9621
630.4	0.96064
630.6	0.95902
630.8	0.95769
631.0	0.95621
631.2	0.95441
631.4	0.95334
631.6	0.95228
631.8	0.9524
632.0	0.95344
632.2	0.95482
632.4	0.9557
632.6	0.95567
632.8	0.95703
633.0	0.95805
633.2	0.95945
633.4	0.96033
633.6	0.96095
633.8	0.96061
634.0	0.96004
634.2	0.95815
634.4	0.95788
634.6	0.9572
634.8	0.95769
635.0	0.9578
635.2	0.95715
635.4	0.95656
635.6	0.95761
635.8	0.96016
636.0	0.96178
636.2	0.9643
636.4	0.96633
636.6	0.96848
636.8	0.96979
637.0	0.97152
637.2	0.97361
637.4	0.97417
637.6	0.97533
637.8	0.97506
638.0	0.97399
638.2	0.97229
638.4	0.97064
638.6	0.96942
638.8	0.96829
639.0	0.96687
639.2	0.9661
639.4	0.96464
639.6	0.9639
639.8	0.9632
640.0	0.96431
640.2	0.96507
640.4	0.96583
640.6	0.96712
640.8	0.9675
641.0	0.96685
641.2	0.96712
641.4	0.96669
641.6	0.96723
641.8	0.96578
642.0	0.96427
642.2	0.96216
642.4	0.95956
642.6	0.95711
642.8	0.95535
643.0	0.95375
643.2	0.95377
643.4	0.95231
643.6	0.95123
643.8	0.95035
644.0	0.95014
644.2	0.95207
644.4	0.95355
644.6	0.95554
644.8	0.95657
645.0	0.95688
645.2	0.95787
645.4	0.95972
645.6	0.96097
645.8	0.96131
646.0	0.96216
646.2	0.96199
646.4	0.96049
646.6	0.95965
646.8	0.95904
647.0	0.95791
647.2	0.95811
647.4	0.9596
647.6	0.95827
647.8	0.95828
648.0	0.95913
648.2	0.9606
648.4	0.96342
648.6	0.96612
648.8	0.96857
649.0	0.97058
649.2	0.97239
649.4	0.97443
649.6	0.97561
649.8	0.97678
650.0	0.97724
650.2	0.97707
650.4	0.97697
650.6	0.97595
650.8	0.97361
651.0	0.97154
651.2	0.96968
651.4	0.9669
651.6	0.96701
651.8	0.96604
652.0	0.96452
652.2	0.96324
652.4	0.96191
652.6	0.96221
652.8	0.96317
653.0	0.9643
653.2	0.96533
653.4	0.96642
653.6	0.96625
653.8	0.96664
654.0	0.96647
654.2	0.96667
654.4	0.96701
654.6	0.96585
654.8	0.96466
655.0	0.96278
655.2	0.96019
655.4	0.95778
655.6	0.95549
655.8	0.95423
656.0	0.95353
656.2	0.9519
656.4	0.95103
656.6	0.95005
656.8	0.94962
657.0	0.95009
657.2	0.95199
657.4	0.95389
657.6	0.95575
657.8	0.95706
658.0	0.95824
658.2	0.95995
658.4	0.96147
658.6	0.96186
658.8	0.96434
659.0	0.96418
659.2	0.96497
659.4	0.96382
659.6	0.96254
659.8	0.96144
660.0	0.96047
660.2	0.96104
660.4	0.96032
660.6	0.96045
660.8	0.9597
661.0	0.95962
661.2	0.96025
661.4	0.96091
661.6	0.96266
661.8	0.96453
662.0	0.96779
662.2	0.96927
662.4	0.9706
662.6	0.9718
662.8	0.97262
663.0	0.97442
663.2	0.97578
663.4	0.97547
663.6	0.97638
663.8	0.97513
664.0	0.97364
664.2	0.97247
664.4	0.97093
664.6	0.97007
664.8	0.96869
665.0	0.9676
665.2	0.96699
665.4	0.96626
665.6	0.9647
665.8	0.96425
666.0	0.96438
666.2	0.96517
666.4	0.96556
666.6	0.96692
666.8	0.96755
667.0	0.96767
667.2	0.96744
667.4	0.96644
667.6	0.96642
667.8	0.96625
668.0	0.96552
668.2	0.96495
668.4	0.96315
668.6	0.96131
668.8	0.959
669.0	0.95632
669.2	0.95459
669.4	0.95397
669.6	0.95362
669.8	0.95328
670.0	0.95228
670.2	0.95166
670.4	0.95221
670.6	0.95177
670.8	0.95454
671.0	0.95705
671.2	0.95903
671.4	0.96084
671.6	0.9621
671.8	0.96345
672.0	0.96458
672.2	0.96454
672.4	0.96616
672.6	0.96649
672.8	0.9672
673.0	0.96617
673.2	0.96608
673.4	0.96545
673.6	0.96439
673.8	0.96322
674.0	0.96265
674.2	0.96216
674.4	0.96266
674.6	0.9626
674.8	0.96275
675.0	0.96409
675.2	0.96515
675.4	0.96687
675.6	0.96866
675.8	0.97124
676.0	0.973
676.2	0.97474
676.4	0.97677
676.6	0.9781
676.8	0.97968
677.0	0.98009
677.2	0.97956
677.4	0.97965
677.6	0.9779
677.8	0.97677
678.0	0.97491
678.2	0.97296
678.4	0.97104
678.6	0.96873
678.8	0.9665
679.0	0.96513
679.2	0.96363
679.4	0.96219
679.6	0.96158
679.8	0.96158
680.0	0.9618
680.2	0.96228
680.4	0.96347
680.6	0.96455
680.8	0.96575
681.0	0.96706
681.2	0.9689
681.4	0.96974
681.6	0.97064
681.8	0.97117
682.0	0.97098
682.2	0.97038
682.4	0.96974
682.6	0.96823
682.8	0.9666
683.0	0.96451
683.2	0.96267
683.4	0.96049
683.6	0.95856
683.8	0.95691
684.0	0.95541
684.2	0.95461
684.4	0.95359
684.6	0.9541
684.8	0.95423
685.0	0.95525
685.2	0.95631
685.4	0.95813
685.6	0.96029
685.8	0.96217
686.0	0.96448
686.2	0.9664
686.4	0.96858
686.6	0.96984
686.8	0.97105
687.0	0.97196
687.2	0.97189
687.4	0.97289
687.6	0.97238
687.8	0.97157
688.0	0.97022
688.2	0.96914
688.4	0.96809
688.6	0.96671
688.8	0.96574
689.0	0.96428
689.2	0.96382
689.4	0.96381
689.6	0.96365
689.8	0.96466
690.0	0.965
690.2	0.96583
690.4	0.96753
690.6	0.96916
690.8	0.97092
691.0	0.97241
691.2	0.97359
691.4	0.97483
691.6	0.97598
691.8	0.97666
692.0	0.977
692.2	0.97757
692.4	0.97649
692.6	0.97584
692.8	0.9743
693.0	0.97325
693.2	0.97151
693.4	0.96997
693.6	0.96828
693.8	0.96661
694.0	0.96538
694.2	0.9644
694.4	0.96357
694.6	0.96338
694.8	0.96263
695.0	0.96257
695.2	0.96304
695.4	0.96353
695.6	0.96398
695.8	0.96515
696.0	0.96595
696.2	0.96675
696.4	0.9674
696.6	0.96737
696.8	0.96763
697.0	0.96784
697.2	0.96735
697.4	0.96698
697.6	0.96604
697.8	0.96513
698.0	0.96367
698.2	0.96214
698.4	0.96099
698.6	0.96005
698.8	0.9591
699.0	0.95769
699.2	0.95701
699.4	0.95659
699.6	0.95672
699.8	0.9571
700.0	0.95768
700.2	0.95883
700.4	0.96012
700.6	0.96179
700.8	0.9633
701.0	0.96478
701.2	0.96613
701.4	0.96847
701.6	0.96932
701.8	0.97033
702.0	0.97155
702.2	0.97182
702.4	0.9724
702.6	0.97241
702.8	0.97196
703.0	0.97178
703.2	0.97101
703.4	0.9702
703.6	0.97017
703.8	0.96896
704.0	0.96876
704.2	0.96818
704.4	0.96814
704.6	0.96767
704.8	0.96872
705.0	0.96858
705.2	0.96968
705.4	0.97061
705.6	0.97179
705.8	0.97291
706.0	0.97403
706.2	0.97522
706.4	0.97598
706.6	0.97756
706.8	0.97795
707.0	0.97881
707.2	0.97854
707.4	0.97828
707.6	0.9779
707.8	0.97685
708.0	0.97534
708.2	0.97386
708.4	0.97209
708.6	0.97055
708.8	0.96891
709.0	0.96681
709.2	0.96512
709.4	0.9637
709.6	0.96242
709.8	0.96149
710.0	0.96054
710.2	0.96002
710.4	0.95986
710.6	0.95988
710.8	0.96
711.0	0.96099
711.2	0.96142
711.4	0.96191
711.6	0.96302
711.8	0.96308
712.0	0.96371
712.2	0.96432
712.4	0.96422
712.6	0.96465
712.8	0.96464
713.0	0.96384
713.2	0.96317
713.4	0.96256
713.6	0.9618
713.8	0.96073
714.0	0.96001
714.2	0.95982
714.4	0.95825
714.6	0.95788
714.8	0.95762
715.0	0.95712
715.2	0.95746
715.4	0.95782
715.6	0.95868
715.8	0.95916
716.0	0.96016
716.2	0.96186
716.4	0.96352
716.6	0.96494
716.8	0.9661
717.0	0.9678
717.2	0.96936
717.4	0.97033
717.6	0.97143
717.8	0.97198
718.0	0.97182
718.2	0.97265
718.4	0.97228
718.6	0.97267
718.8	0.97199
719.0	0.97125
719.2	0.97068
719.4	0.96962
719.6	0.96883
719.8	0.96867
720.0	0.96795
720.2	0.96751
720.4	0.96741
720.6	0.96789
720.8	0.96833
721.0	0.96819
721.2	0.96913
721.4	0.97029
721.6	0.97113
721.8	0.97231
722.0	0.97274
722.2	0.97399
722.4	0.97487
722.6	0.97544
722.8	0.97603
723.0	0.97649
723.2	0.97606
723.4	0.97521
723.6	0.97444
723.8	0.97349
724.0	0.97262
724.2	0.97133
724.4	0.96994
724.6	0.96806
724.8	0.96626
725.0	0.96455
725.2	0.96312
725.4	0.96131
725.6	0.96021
725.8	0.95926
726.0	0.95835
726.2	0.95831
726.4	0.958
726.6	0.95774
726.8	0.95866
727.0	0.95867
727.2	0.95982
727.4	0.96065
727.6	0.96203
727.8	0.96289
728.0	0.96367
728.2	0.96473
728.4	0.96579
728.6	0.96628
728.8	0.96641
729.0	0.96672
729.2	0.96669
729.4	0.96567
729.6	0.96578
729.8	0.9647
730.0	0.96369
730.2	0.963
730.4	0.96196
730.6	0.96105
730.8	0.95993
731.0	0.9593
731.2	0.95862
731.4	0.95816
731.6	0.95869
731.8	0.95872
732.0	0.95904
732.2	0.95963
732.4	0.96046
732.6	0.96188
732.8	0.96313
733.0	0.96482
733.2	0.96608
733.4	0.96756
733.6	0.96914
733.8	0.97054
734.0	0.97167
734.2	0.97297
734.4	0.97386
734.6	0.97485
734.8	0.97542
735.0	0.97518
735.2	0.97487
735.4	0.97458
735.6	0.97416
735.8	0.9735
736.0	0.97315
736.2	0.97254
736.4	0.97196
736.6	0.97128
736.8	0.97071
737.0	0.9702
737.2	0.97019
737.4	0.97017
737.6	0.97007
737.8	0.97058
738.0	0.9716
738.2	0.97315
738.4	0.97394
738.6	0.97443
738.8	0.97539
739.0	0.97644
739.2	0.97741
739.4	0.97725
739.6	0.97701
739.8	0.97756
740.0	0.97667
740.2	0.97573
740.4	0.97455
740.6	0.9734
740.8	0.97179
741.0	0.97018
741.2	0.96804
741.4	0.96604
741.6	0.96426
741.8	0.96241
742.0	0.96115
742.2	0.9597
742.4	0.95823
742.6	0.95719
742.8	0.95616
743.0	0.95536
743.2	0.95569
743.4	0.95566
743.6	0.95578
743.8	0.95625
744.0	0.95741
744.2	0.9582
744.4	0.95841
744.6	0.96018
744.8	0.96116
745.0	0.96207
745.2	0.96359
745.4	0.96439
745.6	0.96458
745.8	0.9648
746.0	0.96506
746.2	0.96553
746.4	0.96503
746.6	0.96474
746.8	0.96378
747.0	0.96319
747.2	0.96216
747.4	0.96132
747.6	0.96069
747.8	0.95983
748.0	0.95938
748.2	0.95903
748.4	0.95887
748.6	0.95836
748.8	0.95884
749.0	0.95927
749.2	0.9602
749.4	0.96118
749.6	0.96204
749.8	0.96398
750.0	0.96541
750.2	0.96726
750.4	0.96902
750.6	0.97068
750.8	0.97198
751.0	0.97389
751.2	0.97492
751.4	0.97659
751.6	0.97717
751.8	0.97771
752.0	0.97883
752.2	0.97846
752.4	0.97818
752.6	0.9777
752.8	0.97691
753.0	0.97592
753.2	0.97501
753.4	0.97437
753.6	0.97277
753.8	0.97199
754.0	0.9708
754.2	0.96961
754.4	0.96871
754.6	0.9684
754.8	0.96814
755.0	0.96773
755.2	0.96778
755.4	0.96748
755.6	0.96795
755.8	0.96849
756.0	0.9694
756.2	0.96965
756.4	0.97068
756.6	0.97156
756.8	0.97216
757.0	0.97329
757.2	0.97371
757.4	0.9745
757.6	0.97397
757.8	0.97372
758.0	0.97411
758.2	0.97331
758.4	0.97282
758.6	0.97152
758.8	0.97009
759.0	0.96879
759.2	0.96691
759.4	0.96623
759.6	0.96458
759.8	0.96267
760.0	0.96104
760.2	0.9601
760.4	0.95892
760.6	0.95818
760.8	0.95677
761.0	0.9563
761.2	0.95633
761.4	0.95642
761.6	0.95652
761.8	0.95628
762.0	0.95699
762.2	0.95745
762.4	0.95849
762.6	0.95925
762.8	0.96014
763.0	0.96106
763.2	0.96222
763.4	0.96266
763.6	0.964
763.8	0.96377
764.0	0.96558
764.2	0.96482
764.4	0.96563
764.6	0.96531
764.8	0.96514
765.0	0.96554
765.2	0.96502
765.4	0.9647
765.6	0.96395
765.8	0.96379
766.0	0.96391
766.2	0.96336
766.4	0.96299
766.6	0.96345
766.8	0.96294
767.0	0.9634
767.2	0.96437
767.4	0.96511
767.6	0.96593
767.8	0.96722
768.0	0.96814
768.2	0.96928
768.4	0.96997
768.6	0.97229
768.8	0.97368
769.0	0.97481
769.2	0.97542
769.4	0.9766
769.6	0.97768
769.8	0.97866
770.0	0.97903
770.2	0.97908
770.4	0.97975
770.6	0.97956
770.8	0.97926
771.0	0.97819
771.2	0.97758
771.4	0.9765
771.6	0.97553
771.8	0.97366
772.0	0.97282
772.2	0.97135
772.4	0.97039
772.6	0.96948
772.8	0.969
773.0	0.96825
773.2	0.96728
773.4	0.96708
773.6	0.9666
773.8	0.96678
774.0	0.96604
774.2	0.96706
774.4	0.96758
774.6	0.96842
774.8	0.96911
775.0	0.9697
775.2	0.97053
775.4	0.97113
775.6	0.97127
775.8	0.97228
776.0	0.97295
776.2	0.9732
776.4	0.97248
776.6	0.97307
776.8	0.97177
777.0	0.97129
777.2	0.97078
777.4	0.96954
777.6	0.96886
777.8	0.96721
778.0	0.96513
778.2	0.96398
778.4	0.9634
778.6	0.96124
778.8	0.96038
779.0	0.95835
779.2	0.95728
779.4	0.95667
779.6	0.95591
779.8	0.95579
780.0	0.95545
780.2	0.95545
780.4	0.95604
780.6	0.95602
780.8	0.95667
781.0	0.95796
781.2	0.95876
781.4	0.95961
781.6	0.96063
781.8	0.96201
782.0	0.96346
782.2	0.9644
782.4	0.96621
782.6	0.96705
782.8	0.96684
783.0	0.96769
783.2	0.96879
783.4	0.96898
783.6	0.96965
783.8	0.9693
784.0	0.96925
784.2	0.96829
784.4	0.96877
784.6	0.96798
784.8	0.96739
785.0	0.96698
785.2	0.96716
785.4	0.96634
785.6	0.96552
785.8	0.96534
786.0	0.96574
786.2	0.9653
786.4	0.96544
786.6	0.96608
786.8	0.96662
787.0	0.96755
787.2	0.96783
787.4	0.96885
787.6	0.96989
787.8	0.97156
788.0	0.97249
788.2	0.97393
788.4	0.97522
788.6	0.97616
788.8	0.97665
789.0	0.97786
789.2	0.97932
789.4	0.97956
789.6	0.98064
789.8	0.98007
790.0	0.97984
790.2	0.97987
790.4	0.97937
790.6	0.97894
790.8	0.97816
791.0	0.97748
791.2	0.97634
791.4	0.9753
791.6	0.97381
791.8	0.97279
792.0	0.97172
792.2	0.97066
792.4	0.96947
792.6	0.9686
792.8	0.96773
793.0	0.96724
793.2	0.96652
793.4	0.96618
793.6	0.96638
793.8	0.9658
794.0	0.9662
794.2	0.96609
794.4	0.96674
794.6	0.96663
794.8	0.96678
795.0	0.96671
795.2	0.96717
795.4	0.96727
795.6	0.96768
795.8	0.96779
796.0	0.96795
796.2	0.96783
796.4	0.96702
796.6	0.96685
796.8	0.96624
797.0	0.96588
797.2	0.96636
797.4	0.96464
797.6	0.96386
797.8	0.96318
798.0	0.96206
798.2	0.96083
798.4	0.96036
798.6	0.95893
798.8	0.95839
799.0	0.95722
799.2	0.95691
799.4	0.95606
799.6	0.95561
799.8	0.95512
800.0	0.95561
800.2	0.95592
800.4	0.95641
800.6	0.95698
800.8	0.9577
801.0	0.95872
801.2	0.95938
801.4	0.95932
801.6	0.96125
801.8	0.96188
802.0	0.96226
802.2	0.96372
802.4	0.96393
802.6	0.96515
802.8	0.96501
803.0	0.96558
803.2	0.96651
803.4	0.96633
803.6	0.96687
803.8	0.96711
804.0	0.96678
804.2	0.96714
804.4	0.96706
804.6	0.96627
804.8	0.96655
805.0	0.96604
805.2	0.96574
805.4	0.96539
805.6	0.96525
805.8	0.96513
806.0	0.96503
806.2	0.96509
806.4	0.96578
806.6	0.96622
806.8	0.967
807.0	0.9682
807.2	0.96904
807.4	0.96969
807.6	0.97059
807.8	0.97192
808.0	0.97244
808.2	0.97392
808.4	0.97497
808.6	0.97623
808.8	0.97732
809.0	0.97827
809.2	0.9786
809.4	0.97897
809.6	0.97954
809.8	0.97979
810.0	0.97952
810.2	0.97979
810.4	0.97946
810.6	0.97915
810.8	0.97852
811.0	0.97785
811.2	0.97641
811.4	0.97515
811.6	0.97394
811.8	0.97232
812.0	0.97098
812.2	0.97011
812.4	0.969
812.6	0.96752
812.8	0.96692
813.0	0.96552
813.2	0.96456
813.4	0.96396
813.6	0.96309
813.8	0.96291
814.0	0.96282
814.2	0.96276
814.4	0.96286
814.6	0.96296
814.8	0.96313
815.0	0.96317
815.2	0.96363
815.4	0.96427
815.6	0.96475
815.8	0.96506
816.0	0.96519
816.2	0.96589
816.4	0.96585
816.6	0.96613
816.8	0.96588
817.0	0.96584
817.2	0.96532
817.4	0.96487
817.6	0.96453
817.8	0.96375
818.0	0.96325
818.2	0.96201
818.4	0.96091
818.6	0.95963
818.8	0.95891
819.0	0.9579
819.2	0.95744
819.4	0.95611
819.6	0.95534
819.8	0.95503
820.0	0.9544
820.2	0.95387
820.4	0.95331
820.6	0.95355
820.8	0.95354
821.0	0.95391
821.2	0.95493
821.4	0.95523
821.6	0.95544
821.8	0.95668
822.0	0.95796
822.2	0.95922
822.4	0.96006
822.6	0.96137
822.8	0.96273
823.0	0.96384
823.2	0.96465
823.4	0.96551
823.6	0.9675
823.8	0.96786
824.0	0.96849
824.2	0.96928
824.4	0.96942
824.6	0.96919
824.8	0.96966
825.0	0.9696
825.2	0.96956
825.4	0.96916
825.6	0.96899
825.8	0.96881
826.0	0.96797
826.2	0.96706
826.4	0.96681
826.6	0.96652
826.8	0.96611
827.0	0.96598
827.2	0.96511
827.4	0.96522
827.6	0.965
827.8	0.96524
828.0	0.96561
828.2	0.96559
828.4	0.96638
828.6	0.96663
828.8	0.96789
829.0	0.96825
829.2	0.9691
829.4	0.97023
829.6	0.97118
829.8	0.97288
830.0	0.97396
830.2	0.97474
830.4	0.97539
830.6	0.97595
830.8	0.97667
831.0	0.97717
831.2	0.97725
831.4	0.97773
831.6	0.97712
831.8	0.97731
832.0	0.97676
832.2	0.97604
832.4	0.97542
832.6	0.97458
832.8	0.97354
833.0	0.97219
833.2	0.97117
833.4	0.96933
833.6	0.96811
833.8	0.96676
834.0	0.96567
834.2	0.96483
834.4	0.96351
834.6	0.96215
834.8	0.96174
835.0	0.96102
835.2	0.96013
835.4	0.96048
835.6	0.95987
835.8	0.96007
836.0	0.9602
836.2	0.96035
836.4	0.9605
836.6	0.9608
836.8	0.96111
837.0	0.96187
837.2	0.96309
837.4	0.96341
837.6	0.96427
837.8	0.96528
838.0	0.96562
838.2	0.96603
838.4	0.96613
838.6	0.96677
838.8	0.96686
839.0	0.96683
839.2	0.9667
839.4	0.96608
839.6	0.96598
839.8	0.96546
840.0	0.96461
840.2	0.96362
840.4	0.96266
840.6	0.96227
840.8	0.96084
841.0	0.96023
841.2	0.95917
841.4	0.95811
841.6	0.95691
841.8	0.95667
842.0	0.95534
842.2	0.95528
842.4	0.95444
842.6	0.95398
842.8	0.95408
843.0	0.95428
843.2	0.95511
843.4	0.95555
843.6	0.95644
843.8	0.95756
844.0	0.95809
844.2	0.9595
844.4	0.96064
844.6	0.96182
844.8	0.96318
845.0	0.96484
845.2	0.9659
845.4	0.96791
845.6	0.96871
845.8	0.96993
846.0	0.97118
846.2	0.97239
846.4	0.97295
846.6	0.97364
846.8	0.97402
847.0	0.97372
847.2	0.97409
847.4	0.97402
847.6	0.97369
847.8	0.97334
848.0	0.97286
848.2	0.97185
848.4	0.97148
848.6	0.97023
848.8	0.96988
849.0	0.96859
849.2	0.96813
849.4	0.9675
849.6	0.96675
849.8	0.96579
850.0	0.96617
850.2	0.9655
850.4	0.96562
850.6	0.9654
850.8	0.96518
851.0	0.96602
851.2	0.96654
851.4	0.96721
851.6	0.9685
851.8	0.96941
852.0	0.97005
852.2	0.97166
852.4	0.97257
852.6	0.97381
852.8	0.97457
853.0	0.97598
853.2	0.97681
853.4	0.97842
853.6	0.979
853.8	0.97953
854.0	0.98016
854.2	0.9812
854.4	0.98091
854.6	0.9809
854.8	0.98114
855.0	0.9806
855.2	0.97978
855.4	0.97886
855.6	0.97774
855.8	0.97642
856.0	0.97466
856.2	0.9731
856.4	0.97247
856.6	0.97038
856.8	0.96863
857.0	0.96729
857.2	0.96534
857.4	0.96405
857.6	0.96271
857.8	0.96159
858.0	0.96012
858.2	0.95875
858.4	0.95768
858.6	0.95741
858.8	0.95734
859.0	0.9569
859.2	0.95696
859.4	0.95714
859.6	0.95727
859.8	0.95751
860.0	0.95785
860.2	0.95875
860.4	0.95908
860.6	0.95947
860.8	0.95991
861.0	0.96097
861.2	0.96167
861.4	0.96324
861.6	0.9638
861.8	0.96466
862.0	0.96515
862.2	0.96539
862.4	0.9652
862.6	0.96525
862.8	0.96571
863.0	0.96601
863.2	0.96581
863.4	0.96493
863.6	0.96387
863.8	0.96395
864.0	0.9636
864.2	0.96322
864.4	0.96238
864.6	0.96142
864.8	0.96072
865.0	0.96066
865.2	0.95948
865.4	0.95891
865.6	0.9583
865.8	0.95808
866.0	0.95786
866.2	0.95784
866.4	0.95774
866.6	0.95812
866.8	0.95768
867.0	0.95841
867.2	0.95898
867.4	0.96028
867.6	0.96113
867.8	0.96265
868.0	0.96419
868.2	0.96557
868.4	0.96663
868.6	0.96796
868.8	0.96887
869.0	0.97046
869.2	0.9724
869.4	0.97318
869.6	0.97452
869.8	0.97583
870.0	0.97641
870.2	0.97769
870.4	0.97871
870.6	0.97931
870.8	0.97944
871.0	0.97969
871.2	0.98023
871.4	0.97939
871.6	0.97927
871.8	0.97917
872.0	0.97874
872.2	0.97803
872.4	0.97723
872.6	0.97631
872.8	0.97504
873.0	0.97416
873.2	0.97328
873.4	0.97279
873.6	0.97186
873.8	0.97067
874.0	0.97029
874.2	0.9699
874.4	0.96903
874.6	0.96903
874.8	0.96945
875.0	0.96894
875.2	0.96898
875.4	0.96993
875.6	0.96943
875.8	0.96998
876.0	0.97116
876.2	0.97102
876.4	0.97217
876.6	0.97271
876.8	0.97371
877.0	0.97491
877.2	0.9761
877.4	0.97736
877.6	0.97805
877.8	0.97859
878.0	0.97899
878.2	0.9802
878.4	0.98047
878.6	0.98102
878.8	0.98079
879.0	0.98108
879.2	0.98054
879.4	0.98025
879.6	0.97945
879.8	0.9787
880.0	0.97794
880.2	0.97747
880.4	0.97664
880.6	0.97455
880.8	0.97384
881.0	0.9727
881.2	0.97117
881.4	0.96969
881.6	0.96839
881.8	0.96701
882.0	0.96521
882.2	0.96451
882.4	0.96329
882.6	0.96224
882.8	0.96076
883.0	0.9598
883.2	0.96
883.4	0.96022
883.6	0.95957
883.8	0.95915
884.0	0.9591
884.2	0.95919
884.4	0.95921
884.6	0.95987
884.8	0.96049
885.0	0.96116
885.2	0.96193
885.4	0.96261
885.6	0.96308
885.8	0.96385
886.0	0.96453
886.2	0.96535
886.4	0.96621
886.6	0.9671
886.8	0.96769
887.0	0.96784
887.2	0.96835
887.4	0.9685
887.6	0.96908
887.8	0.96896
888.0	0.96938
888.2	0.96891
888.4	0.96829
888.6	0.96804
888.8	0.96732
889.0	0.9672
889.2	0.96659
889.4	0.96571
889.6	0.96502
889.8	0.96318
890.0	0.96312
890.2	0.96261
890.4	0.96198
890.6	0.96141
890.8	0.96107
891.0	0.96072
891.2	0.9602
891.4	0.96004
891.6	0.9598
891.8	0.96037
892.0	0.961
892.2	0.96091
892.4	0.9618
892.6	0.96229
892.8	0.96264
893.0	0.9638
893.2	0.96409
893.4	0.96524
893.6	0.96632
893.8	0.96772
894.0	0.96921
894.2	0.97012
894.4	0.97121
894.6	0.97247
894.8	0.97427
895.0	0.97449
895.2	0.97592
895.4	0.9767
895.6	0.97804
895.8	0.97881
896.0	0.97875
896.2	0.97883
896.4	0.97979
896.6	0.97941
896.8	0.97989
897.0	0.98014
897.2	0.97936
897.4	0.97909
897.6	0.97885
897.8	0.978
898.0	0.9774
898.2	0.97749
898.4	0.9764
898.6	0.97534
898.8	0.9746
899.0	0.97371
899.2	0.9734
899.4	0.973
899.6	0.97145
899.8	0.9712
900.0	0.97107
900.2	0.97137
900.4	0.97056
900.6	0.9704
900.8	0.97009
901.0	0.9702
901.2	0.97059
901.4	0.97046
901.6	0.97051
901.8	0.9717
902.0	0.97233
902.2	0.9723
902.4	0.97276
902.6	0.97289
902.8	0.9739
903.0	0.97455
903.2	0.97511
903.4	0.97557
903.6	0.97618
903.8	0.97672
904.0	0.97657
904.2	0.97709
904.4	0.97706
904.6	0.97712
904.8	0.97697
905.0	0.97691
905.2	0.97692
905.4	0.97638
905.6	0.97616
905.8	0.97541
906.0	0.97488
906.2	0.97342
906.4	0.97293
906.6	0.97245
906.8	0.97124
907.0	0.97098
907.2	0.96965
907.4	0.96912
907.6	0.96831
907.8	0.96705
908.0	0.96652
908.2	0.96534
908.4	0.96499
908.6	0.96422
908.8	0.96448
909.0	0.96318
909.2	0.96299
909.4	0.96261
909.6	0.96336
909.8	0.96284
910.0	0.9624
910.2	0.96266
910.4	0.96255
910.6	0.96301
910.8	0.96358
911.0	0.96423
911.2	0.96405
911.4	0.96475
911.6	0.96515
911.8	0.96554
912.0	0.96673
912.2	0.96711
912.4	0.96799
912.6	0.96831
912.8	0.96827
913.0	0.96799
913.2	0.96892
913.4	0.96902
913.6	0.96893
913.8	0.96987
914.0	0.96955
914.2	0.96978
914.4	0.96902
914.6	0.96912
914.8	0.96835
915.0	0.96799
915.2	0.96784
915.4	0.96788
915.6	0.9671
915.8	0.96679
916.0	0.96631
916.2	0.96581
916.4	0.96494
916.6	0.96496
916.8	0.96477
917.0	0.96452
917.2	0.96412
917.4	0.96388
917.6	0.96429
917.8	0.96437
918.0	0.96402
918.2	0.96436
918.4	0.96469
918.6	0.96574
918.8	0.96603
919.0	0.96657
919.2	0.96682
919.4	0.96773
919.6	0.96896
919.8	0.96986
920.0	0.97047
920.2	0.97143
920.4	0.97239
920.6	0.97314
920.8	0.97394
921.0	0.97521
921.2	0.97568
921.4	0.9771
921.6	0.97829
921.8	0.97823
922.0	0.9791
922.2	0.97944
922.4	0.97954
922.6	0.98016
922.8	0.98065
923.0	0.9808
923.2	0.98024
923.4	0.98028
923.6	0.98016
923.8	0.98012
924.0	0.97962
924.2	0.97928
924.4	0.97913
924.6	0.97801
924.8	0.97765
925.0	0.97694
925.2	0.97668
925.4	0.97545
925.6	0.97468
925.8	0.97461
926.0	0.97435
926.2	0.97345
926.4	0.9727
926.6	0.97222
926.8	0.97201
927.0	0.97125
927.2	0.97056
927.4	0.97048
927.6	0.97035
927.8	0.97079
928.0	0.97025
928.2	0.97153
928.4	0.97087
928.6	0.97083
928.8	0.97169
929.0	0.97175
929.2	0.97197
929.4	0.97236
929.6	0.97281
929.8	0.97332
930.0	0.9738
930.2	0.97422
930.4	0.97496
930.6	0.97478
930.8	0.97446
931.0	0.97521
931.2	0.97613
931.4	0.97441
931.6	0.97383
931.8	0.9761
932.0	0.97604
932.2	0.97595
932.4	0.9763
932.6	0.97521
932.8	0.97489
933.0	0.97385
933.2	0.97315
933.4	0.97297
933.6	0.97143
933.8	0.97089
934.0	0.96968
934.2	0.96967
934.4	0.96818
934.6	0.96702
934.8	0.96572
935.0	0.96583
935.2	0.96442
935.4	0.96396
935.6	0.96281
935.8	0.96295
936.0	0.96137
936.2	0.96165
936.4	0.96172
936.6	0.96088
936.8	0.96071
937.0	0.9614
937.2	0.96029
937.4	0.9604
937.6	0.96092
937.8	0.96137
938.0	0.96169
938.2	0.96213
938.4	0.96234
938.6	0.96364
938.8	0.96303
939.0	0.9643
939.2	0.96478
939.4	0.96565
939.6	0.9661
939.8	0.96664
940.0	0.96755
940.2	0.96859
940.4	0.9687
940.6	0.96917
940.8	0.96984
941.0	0.97071
941.2	0.96999
941.4	0.97074
941.6	0.97094
941.8	0.97093
942.0	0.97136
942.2	0.97164
942.4	0.97067
942.6	0.97163
942.8	0.97089
943.0	0.97062
943.2	0.97037
943.4	0.97029
943.6	0.97035
943.8	0.97051
944.0	0.97047
944.2	0.9688
944.4	0.96906
944.6	0.96888
944.8	0.96892
945.0	0.96894
945.2	0.96873
945.4	0.96867
945.6	0.96888
945.8	0.96831
946.0	0.96872
946.2	0.96857
946.4	0.96848
946.6	0.96938
946.8	0.9703
947.0	0.97021
947.2	0.97088
947.4	0.97186
947.6	0.97246
947.8	0.97277
948.0	0.9738
948.2	0.97447
948.4	0.97457
948.6	0.97562
948.8	0.976
949.0	0.97641
949.2	0.97803
949.4	0.97855
949.6	0.97854
949.8	0.9792
950.0	0.98033
950.2	0.97998
950.4	0.97965
950.6	0.98054
950.8	0.98041
951.0	0.98067
951.2	0.9811
951.4	0.9811
951.6	0.98084
951.8	0.98052
952.0	0.98024
952.2	0.98003
952.4	0.97869
952.6	0.97871
952.8	0.9783
953.0	0.97695
953.2	0.97739
953.4	0.97675
953.6	0.97611
953.8	0.97482
954.0	0.97421
954.2	0.97412
954.4	0.97372
954.6	0.97272
954.8	0.97234
955.0	0.97227
955.2	0.97195
955.4	0.97154
955.6	0.97114
955.8	0.97075
956.0	0.97069
956.2	0.97057
956.4	0.97047
956.6	0.97093
956.8	0.97091
957.0	0.97064
957.2	0.97113
957.4	0.97155
957.6	0.97216
957.8	0.97326
958.0	0.97264
958.2	0.97301
958.4	0.97335
958.6	0.9739
958.8	0.97431
959.0	0.97454
959.2	0.97441
959.4	0.97495
959.6	0.97512
959.8	0.97554
960.0	0.97541
960.2	0.97588
960.4	0.97627
960.6	0.97556
960.8	0.97549
961.0	0.97594
961.2	0.97482
961.4	0.97428
961.6	0.97414
961.8	0.97278
962.0	0.97244
962.2	0.97194
962.4	0.97119
962.6	0.97056
962.8	0.96976
963.0	0.96888
963.2	0.9684
963.4	0.96745
963.6	0.96655
963.8	0.96517
964.0	0.9645
964.2	0.96409
964.4	0.963
964.6	0.96236
964.8	0.96189
965.0	0.96164
965.2	0.96125
965.4	0.96075
965.6	0.96019
965.8	0.96004
966.0	0.9601
966.2	0.96048
966.4	0.96005
966.6	0.96013
966.8	0.9603
967.0	0.9606
967.2	0.96085
967.4	0.9614
967.6	0.96192
967.8	0.963
968.0	0.96359
968.2	0.96426
968.4	0.96507
968.6	0.96509
968.8	0.96615
969.0	0.96633
969.2	0.96701
969.4	0.96776
969.6	0.96811
969.8	0.969
970.0	0.9696
970.2	0.96988
970.4	0.97064
970.6	0.97144
970.8	0.97208
971.0	0.9716
971.2	0.97197
971.4	0.97284
971.6	0.97279
971.8	0.97305
972.0	0.97255
972.2	0.97195
972.4	0.97171
972.6	0.97174
972.8	0.97167
973.0	0.97121
973.2	0.9711
973.4	0.97097
973.6	0.97113
973.8	0.97009
974.0	0.97029
974.2	0.97051
974.4	0.97037
974.6	0.97003
974.8	0.9701
975.0	0.97002
975.2	0.97024
975.4	0.97079
975.6	0.97059
975.8	0.9701
976.0	0.97069
976.2	0.97208
976.4	0.97157
976.6	0.97244
976.8	0.97359
977.0	0.97403
977.2	0.97423
977.4	0.97497
977.6	0.9752
977.8	0.97601
978.0	0.97663
978.2	0.97689
978.4	0.97848
978.6	0.97853
978.8	0.97928
979.0	0.98012
979.2	0.98078
979.4	0.98142
979.6	0.98198
979.8	0.98227
980.0	0.98203
980.2	0.98244
980.4	0.98243
980.6	0.98282
980.8	0.9827
981.0	0.98288
981.2	0.98264
981.4	0.9821
981.6	0.9814
981.8	0.98142
982.0	0.98054
982.2	0.98001
982.4	0.97978
982.6	0.97895
982.8	0.97795
983.0	0.97676
983.2	0.97645
983.4	0.97523
983.6	0.97485
983.8	0.97399
984.0	0.97271
984.2	0.97127
984.4	0.97072
984.6	0.97013
984.8	0.9696
985.0	0.96883
985.2	0.96768
985.4	0.96726
985.6	0.96689
985.8	0.9657
986.0	0.96558
986.2	0.96548
986.4	0.96478
986.6	0.96407
986.8	0.9644
987.0	0.96378
987.2	0.96433
987.4	0.96464
987.6	0.96426
987.8	0.96486
988.0	0.96486
988.2	0.96442
988.4	0.96465
988.6	0.9656
988.8	0.96572
989.0	0.96566
989.2	0.96583
989.4	0.96631
989.6	0.96657
989.8	0.96691
990.0	0.96789
990.2	0.96735
990.4	0.96734
990.6	0.96788
990.8	0.96811
991.0	0.96856
991.2	0.96812
991.4	0.96817
991.6	0.96772
991.8	0.96783
992.0	0.96847
992.2	0.96806
992.4	0.96732
992.6	0.96737
992.8	0.96741
993.0	0.96658
993.2	0.96632
993.4	0.96558
993.6	0.96539
993.8	0.96488
994.0	0.96507
994.2	0.9639
994.4	0.96348
994.6	0.96371
994.8	0.96301
995.0	0.96247
995.2	0.96256
995.4	0.9621
995.6	0.96135
995.8	0.96083
996.0	0.96104
996.2	0.96074
996.4	0.96066
996.6	0.96156
996.8	0.96147
997.0	0.9607
997.2	0.96089
997.4	0.96164
997.6	0.96156
997.8	0.96214
998.0	0.96247
998.2	0.96266
998.4	0.96344
998.6	0.96402
998.8	0.96421
999.0	0.96485
999.2	0.96531
999.4	0.96629
999.6	0.96662
999.8	0.96719
1000.0	0.96737
1000.2	0.96724
1000.4	0.96732
1000.6	0.96757
1000.8	0.96924
1001.0	0.96941
1001.2	0.96965
1001.4	0.96962
1001.6	0.97071
1001.8	0.97008
1002.0	0.97044
1002.2	0.97225
1002.4	0.97184
1002.6	0.97138
1002.8	0.97169
1003.0	0.97145
1003.2	0.97143
1003.4	0.97181
1003.6	0.9712
1003.8	0.97082
1004.0	0.97074
1004.2	0.97161
1004.4	0.97077
1004.6	0.97074
1004.8	0.97046
1005.0	0.96988
1005.2	0.97001
1005.4	0.96959
1005.6	0.96923
1005.8	0.96925
1006.0	0.96946
1006.2	0.96855
1006.4	0.96842
1006.6	0.9686
1006.8	0.96819
1007.0	0.9692
1007.2	0.96925
1007.4	0.96958
1007.6	0.96999
1007.8	0.96952
1008.0	0.96991
1008.2	0.96973
1008.4	0.97057
1008.6	0.97053
1008.8	0.9713
1009.0	0.97182
1009.2	0.97218
1009.4	0.97237
1009.6	0.97398
1009.8	0.97401
1010.0	0.97402
1010.2	0.97433
1010.4	0.97507
1010.6	0.97612
1010.8	0.97638
1011.0	0.97624
1011.2	0.976
1011.4	0.97772
1011.6	0.97788
1011.8	0.97763
1012.0	0.97759
1012.2	0.97903
1012.4	0.97807
1012.6	0.97888
1012.8	0.97888
1013.0	0.97789
1013.2	0.97823
1013.4	0.97788
1013.6	0.97745
1013.8	0.97739
1014.0	0.97711
1014.2	0.9757
1014.4	0.97587
1014.6	0.97419
1014.8	0.97516
1015.0	0.97417
1015.2	0.97421
1015.4	0.97315
1015.6	0.97254
1015.8	0.9716
1016.0	0.97133
1016.2	0.97057
1016.4	0.97019
1016.6	0.96957
1016.8	0.96883
1017.0	0.96789
1017.2	0.96753
1017.4	0.96719
1017.6	0.96653
1017.8	0.96656
1018.0	0.96658
1018.2	0.96609
1018.4	0.96504
1018.6	0.96515
1018.8	0.96519
1019.0	0.96547
1019.2	0.96558
1019.4	0.96481
1019.6	0.96489
1019.8	0.96605
1020.0	0.96573
1020.2	0.96586
1020.4	0.96629
1020.6	0.96656
1020.8	0.96632
1021.0	0.96663
1021.2	0.96731
1021.4	0.96741
1021.6	0.96767
1021.8	0.9664
1022.0	0.96763
1022.2	0.9678
1022.4	0.9686
1022.6	0.96874
1022.8	0.96797
1023.0	0.96886
1023.2	0.96816
1023.4	0.96906
1023.6	0.96846
1023.8	0.96926
1024.0	0.9691
1024.2	0.96803
1024.4	0.9674
1024.6	0.9674
1024.8	0.96716
1025.0	0.96564
1025.2	0.96363
1025.4	0.96244
1025.6	0.96248
1025.8	0.96245
1026.0	0.96304
1026.2	0.96161
1026.4	0.96013
1026.6	0.9608
1026.8	0.96009
1027.0	0.95946
1027.2	0.95932
1027.4	0.95764
1027.6	0.95728
1027.8	0.95781
1028.0	0.95697
1028.2	0.95669
1028.4	0.95657
1028.6	0.95581
1028.8	0.95617
1029.0	0.95609
1029.2	0.95593
1029.4	0.95553
1029.6	0.95584
1029.8	0.95616
1030.0	0.95644
1030.2	0.95535
1030.4	0.95664
1030.6	0.95709
1030.8	0.95622
1031.0	0.95821
1031.2	0.95921
1031.4	0.95922
1031.6	0.96007
1031.8	0.96057
1032.0	0.96161
1032.2	0.96157
1032.4	0.96327
1032.6	0.9631
1032.8	0.96433
1033.0	0.96458
1033.2	0.9657
1033.4	0.9664
1033.6	0.96831
1033.8	0.96739
1034.0	0.96902
1034.2	0.96855
1034.4	0.96937
1034.6	0.9696
1034.8	0.96987
1035.0	0.97009
1035.2	0.97099
1035.4	0.97107
1035.6	0.97185
1035.8	0.97137
1036.0	0.97192
1036.2	0.97273
1036.4	0.97083
1036.6	0.97229
1036.8	0.97147
1037.0	0.97055
1037.2	0.97052
1037.4	0.96992
1037.6	0.97004
1037.8	0.96944
1038.0	0.96972
1038.2	0.96901
1038.4	0.96913
1038.6	0.96852
1038.8	0.96783
1039.0	0.9673
1039.2	0.96692
1039.4	0.96627
1039.6	0.96661
1039.8	0.96616
1040.0	0.965
1040.2	0.9643
1040.4	0.96435
1040.6	0.96452
1040.8	0.96409
1041.0	0.96465
1041.2	0.96457
1041.4	0.96463
1041.6	0.9646
1041.8	0.96449
1042.0	0.96467
1042.2	0.96485
1042.4	0.96497
1042.6	0.96589
1042.8	0.96645
1043.0	0.96791
1043.2	0.96696
1043.4	0.96808
1043.6	0.96782
1043.8	0.96766
1044.0	0.96926
1044.2	0.96995
1044.4	0.97124
1044.6	0.97067
1044.8	0.97226
1045.0	0.97227
1045.2	0.97301
1045.4	0.97462
1045.6	0.97357
1045.8	0.97506
1046.0	0.97541
1046.2	0.97495
1046.4	0.97615
1046.6	0.97669
1046.8	0.9755
1047.0	0.97663
1047.2	0.97549
1047.4	0.97543
1047.6	0.97498
1047.8	0.97298
1048.0	0.97496
1048.2	0.97465
1048.4	0.97408
1048.6	0.97385
1048.8	0.97316
1049.0	0.97267
1049.2	0.97294
1049.4	0.97091
1049.6	0.97145
1049.8	0.96857
1050.0	0.96871
1050.2	0.96737
1050.4	0.96663
1050.6	0.96604
1050.8	0.96541
1051.0	0.96371
1051.2	0.9642
1051.4	0.96232
1051.6	0.96166
1051.8	0.96108
1052.0	0.95966
1052.2	0.95941
1052.4	0.95892
1052.6	0.95748
1052.8	0.9577
1053.0	0.95618
1053.2	0.95651
1053.4	0.9578
1053.6	0.95476
1053.8	0.95626
1054.0	0.95642
1054.2	0.95607
1054.4	0.95486
1054.6	0.95411
1054.8	0.95498
1055.0	0.95681
1055.2	0.95372
1055.4	0.95534
1055.6	0.95497
1055.8	0.95671
1056.0	0.9573
1056.2	0.95574
1056.4	0.95694
1056.6	0.95762
1056.8	0.9573
1057.0	0.95786
1057.2	0.95919
1057.4	0.96055
1057.6	0.96008
1057.8	0.96039
1058.0	0.95993
1058.2	0.96087
1058.4	0.96179
1058.6	0.96303
1058.8	0.96174
1059.0	0.96294
1059.2	0.96232
1059.4	0.96196
1059.6	0.9635
1059.8	0.96341
1060.0	0.96306
1060.2	0.96233
1060.4	0.96192
1060.6	0.96165
1060.8	0.9626
1061.0	0.96193
1061.2	0.96131
1061.4	0.96296
1061.6	0.96116
1061.8	0.96188
1062.0	0.95948
1062.2	0.96015
1062.4	0.9593
1062.6	0.95861
1062.8	0.95918
1063.0	0.95882
1063.2	0.95894
1063.4	0.95811
1063.6	0.95851
1063.8	0.95722
1064.0	0.95779
1064.2	0.95578
1064.4	0.95563
1064.6	0.95602
1064.8	0.95583
1065.0	0.95757
1065.2	0.95773
1065.4	0.95712
1065.6	0.95705
1065.8	0.95734
1066.0	0.95786
1066.2	0.95998
1066.4	0.95871
1066.6	0.95973
1066.8	0.95936
1067.0	0.95961
1067.2	0.96114
1067.4	0.96162
1067.6	0.96164
1067.8	0.96243
1068.0	0.96312
1068.2	0.96404
1068.4	0.96514
1068.6	0.966
1068.8	0.96403
1069.0	0.96401
1069.2	0.96607
1069.4	0.96686
1069.6	0.96815
1069.8	0.96956
1070.0	0.96975
1070.2	0.97044
1070.4	0.96965
1070.6	0.9689
1070.8	0.9706
1071.0	0.97239
1071.2	0.97103
1071.4	0.97028
1071.6	0.97149
1071.8	0.97303
1072.0	0.97398
1072.2	0.97239
1072.4	0.97468
1072.6	0.97281
1072.8	0.97268
1073.0	0.97134
1073.2	0.97218
1073.4	0.97223
1073.6	0.97315
1073.8	0.97183
1074.0	0.9731
1074.2	0.97313
1074.4	0.97006
1074.6	0.9724
1074.8	0.97136
1075.0	0.97043
1075.2	0.96852
1075.4	0.96967
1075.6	0.96808
1075.8	0.96918
1076.0	0.96755
1076.2	0.97004
1076.4	0.96864
1076.6	0.96807
1076.8	0.96762
1077.0	0.96639
1077.2	0.96756
1077.4	0.96538
1077.6	0.96668
1077.8	0.9682
1078.0	0.96559
1078.2	0.96634
1078.4	0.96811
1078.6	0.96666
1078.8	0.96828
1079.0	0.96817
1079.2	0.96779
1079.4	0.96845
1079.6	0.96636
1079.8	0.96823
1080.0	0.96958
1080.2	0.97067
1080.4	0.96967
1080.6	0.97122
1080.8	0.97048
1081.0	0.9711
1081.2	0.96843
1081.4	0.97132
1081.6	0.97236
1081.8	0.97346
1082.0	0.97377
1082.2	0.97175
1082.4	0.97172
1082.6	0.97249
1082.8	0.97367
1083.0	0.97444
1083.2	0.97312
1083.4	0.97195
1083.6	0.9738
1083.8	0.97346
1084.0	0.97183
1084.2	0.97136
1084.4	0.97369
1084.6	0.97307
1084.8	0.97365
1085.0	0.97256
1085.2	0.9692
1085.4	0.97058
1085.6	0.97187
1085.8	0.96914
1086.0	0.97206
1086.2	0.9693
1086.4	0.96553
1086.6	0.96741
1086.8	0.96687
1087.0	0.96608
1087.2	0.96411
1087.4	0.96525
1087.6	0.96421
1087.8	0.96411
1088.0	0.96376
1088.2	0.96223
1088.4	0.96178
1088.6	0.9611
1088.8	0.96193
1089.0	0.95894
1089.2	0.9598
1089.4	0.95662
1089.6	0.95586
1089.8	0.95836
1090.0	0.95673
1090.2	0.95825
1090.4	0.95694
1090.6	0.95593
1090.8	0.95535
1091.0	0.95583
1091.2	0.95783
1091.4	0.95404
1091.6	0.95727
1091.8	0.95754
1092.0	0.954
1092.2	0.95708
1092.4	0.9525
1092.6	0.95717
1092.8	0.95628
1093.0	0.95664
1093.2	0.95694
1093.4	0.9562
1093.6	0.95625
1093.8	0.95957
1094.0	0.95759
1094.2	0.95885
1094.4	0.95892
1094.6	0.95618
1094.8	0.95992
1095.0	0.95935
1095.2	0.96303
1095.4	0.96245
1095.6	0.96373
1095.8	0.96279
1096.0	0.96182
1096.2	0.96168
1096.4	0.96168
1096.6	0.96207
1096.8	0.96348
1097.0	0.96406
1097.2	0.9616
1097.4	0.96245
1097.6	0.96604
1097.8	0.96248
1098.0	0.96217
1098.2	0.96246
1098.4	0.96058
1098.6	0.96323
1098.8	0.96137
1099.0	0.96298
1099.2	0.96121
1099.4	0.96105
1099.6	0.96205
1099.8	0.9602
1100.0	0.95725
1100.2	0.96015
1100.4	0.95815
1100.6	0.95922
1100.8	0.96147
1101.0	0.95974
1101.2	0.95668
1101.4	0.9591
1101.6	0.95664
1101.8	0.959
1102.0	0.95538
1102.2	0.9564
1102.4	0.95726
1102.6	0.95727
1102.8	0.95465
1103.0	0.95296
1103.2	0.95309
1103.4	0.95383
1103.6	0.95333
1103.8	0.95288
1104.0	0.95175
1104.2	0.95269
1104.4	0.95329
1104.6	0.95657
1104.8	0.95331
1105.0	0.95403
1105.2	0.95276
1105.4	0.95563
1105.6	0.95318
1105.8	0.95737
1106.0	0.95448
1106.2	0.95662
1106.4	0.9574
1106.6	0.95633
1106.8	0.95635
1107.0	0.96057
1107.2	0.95681
1107.4	0.96047
1107.6	0.96083
1107.8	0.96071
1108.0	0.96331
1108.2	0.96164
1108.4	0.96219
1108.6	0.96513
1108.8	0.96315
1109.0	0.96522
1109.2	0.96573
1109.4	0.96662
1109.6	0.96657
1109.8	0.96922
1110.0	0.96491
1110.2	0.96967
1110.4	0.97067
1110.6	0.96976
1110.8	0.96842
1111.0	0.97456
1111.2	0.96872
1111.4	0.96855
1111.6	0.97012
1111.8	0.97017
1112.0	0.96868
1112.2	0.96905
1112.4	0.9685
1112.6	0.96908
1112.8	0.97
1113.0	0.96804
1113.2	0.96419
1113.4	0.96543
1113.6	0.96542
1113.8	0.96684
1114.0	0.96386
1114.2	0.96427
1114.4	0.96734
1114.6	0.96705
1114.8	0.96471
1115.0	0.96428
1115.2	0.96404
1115.4	0.96303
1115.6	0.96306
1115.8	0.96098
1116.0	0.96006
1116.2	0.95642
1116.4	0.9639
1116.6	0.96017
1116.8	0.96054
1117.0	0.962
1117.2	0.95858
1117.4	0.95818
1117.6	0.96053
1117.8	0.95654
1118.0	0.95712
1118.2	0.95581
1118.4	0.95755
1118.6	0.95773
1118.8	0.96066
1119.0	0.95353
1119.2	0.95989
1119.4	0.95715
1119.6	0.96056
1119.8	0.95736
1120.0	0.9678
1120.2	0.96824
1120.4	0.96867
1120.6	0.96911
1120.8	0.96955
1121.0	0.96998
1121.2	0.97017
1121.4	0.97037
1121.6	0.97056
1121.8	0.97076
1122.0	0.97095
1122.2	0.97125
1122.4	0.97156
1122.6	0.97186
1122.8	0.97216
1123.0	0.97246
1123.2	0.9727
1123.4	0.97293
1123.6	0.97316
1123.8	0.97339
1124.0	0.97362
1124.2	0.97347
1124.4	0.97332
1124.6	0.97317
1124.8	0.97302
1125.0	0.97287
1125.2	0.973
1125.4	0.97312
1125.6	0.97324
1125.8	0.97336
1126.0	0.97348
1126.2	0.97305
1126.4	0.97262
1126.6	0.97219
1126.8	0.97175
1127.0	0.97132
1127.2	0.97049
1127.4	0.96966
1127.6	0.96882
1127.8	0.96799
1128.0	0.96716
1128.2	0.96689
1128.4	0.96662
1128.6	0.96635
1128.8	0.96608
1129.0	0.9658
1129.2	0.96502
1129.4	0.96423
1129.6	0.96344
1129.8	0.96265
1130.0	0.96187
1130.2	0.96131
1130.4	0.96076
1130.6	0.96021
1130.8	0.95965
1131.0	0.9591
1131.2	0.9589
1131.4	0.9587
1131.6	0.95849
1131.8	0.95829
1132.0	0.95809
1132.2	0.9578
1132.4	0.9575
1132.6	0.95721
1132.8	0.95692
1133.0	0.95662
1133.2	0.9569
1133.4	0.95718
1133.6	0.95746
1133.8	0.95774
1134.0	0.95801
1134.2	0.95816
1134.4	0.9583
1134.6	0.95844
1134.8	0.95858
1135.0	0.95872
1135.2	0.95909
1135.4	0.95945
1135.6	0.95982
1135.8	0.96018
1136.0	0.96055
1136.2	0.96118
1136.4	0.96181
1136.6	0.96244
1136.8	0.96306
1137.0	0.96369
1137.2	0.96424
1137.4	0.96479
1137.6	0.96533
1137.8	0.96588
1138.0	0.96643
1138.2	0.96658
1138.4	0.96673
1138.6	0.96688
1138.8	0.96704
1139.0	0.96719
1139.2	0.96753
1139.4	0.96787
1139.6	0.96821
1139.8	0.96855
1140.0	0.96889
1140.2	0.96875
1140.4	0.96861
1140.6	0.96847
1140.8	0.96833
1141.0	0.96819
1141.2	0.96812
1141.4	0.96805
1141.6	0.96799
1141.8	0.96792
1142.0	0.96786
1142.2	0.9676
1142.4	0.96735
1142.6	0.9671
1142.8	0.96684
1143.0	0.96659
1143.2	0.96627
1143.4	0.96595
1143.6	0.96563
1143.8	0.96531
1144.0	0.96499
1144.2	0.96487
1144.4	0.96475
1144.6	0.96463
1144.8	0.96451
1145.0	0.96439
1145.2	0.96434
1145.4	0.96429
1145.6	0.96424
1145.8	0.96419
1146.0	0.96413
1146.2	0.96442
1146.4	0.9647
1146.6	0.96499
1146.8	0.96527
1147.0	0.96556
1147.2	0.96592
1147.4	0.96629
1147.6	0.96666
1147.8	0.96702
1148.0	0.96739
1148.2	0.9677
1148.4	0.96801
1148.6	0.96832
1148.8	0.96863
1149.0	0.96894
1149.2	0.96951
1149.4	0.97009
1149.6	0.97067
1149.8	0.97124
1150.0	0.97182
1150.2	0.9724
1150.4	0.97298
1150.6	0.97356
1150.8	0.97414
1151.0	0.97472
1151.2	0.97506
1151.4	0.9754
1151.6	0.97574
1151.8	0.97609
1152.0	0.97643
1152.2	0.97653
1152.4	0.97662
1152.6	0.97672
1152.8	0.97681
1153.0	0.97691
1153.2	0.97721
1153.4	0.97751
1153.6	0.97781
1153.8	0.97811
1154.0	0.97841
1154.2	0.97824
1154.4	0.97807
1154.6	0.97791
1154.8	0.97774
1155.0	0.97757
1155.2	0.97739
1155.4	0.97721
1155.6	0.97704
1155.8	0.97686
1156.0	0.97668
1156.2	0.97655
1156.4	0.97642
1156.6	0.97629
1156.8	0.97616
1157.0	0.97603
1157.2	0.97559
1157.4	0.97516
1157.6	0.97472
1157.8	0.97429
1158.0	0.97385
1158.2	0.97313
1158.4	0.9724
1158.6	0.97168
1158.8	0.97096
1159.0	0.97023
1159.2	0.96986
1159.4	0.96949
1159.6	0.96912
1159.8	0.96875
1160.0	0.96838
1160.2	0.96816
1160.4	0.96795
1160.6	0.96773
1160.8	0.96751
1161.0	0.96729
1161.2	0.9668
1161.4	0.96631
1161.6	0.96582
1161.8	0.96533
1162.0	0.96484
1162.2	0.96534
1162.4	0.96584
1162.6	0.96634
1162.8	0.96684
1163.0	0.96734
1163.2	0.96729
1163.4	0.96724
1163.6	0.96719
1163.8	0.96714
1164.0	0.96709
1164.2	0.9671
1164.4	0.96712
1164.6	0.96713
1164.8	0.96715
1165.0	0.96716
1165.2	0.96709
1165.4	0.96701
1165.6	0.96694
1165.8	0.96686
1166.0	0.96679
1166.2	0.9669
1166.4	0.96702
1166.6	0.96714
1166.8	0.96726
1167.0	0.96738
1167.2	0.96751
1167.4	0.96764
1167.6	0.96777
1167.8	0.9679
1168.0	0.96803
1168.2	0.96791
1168.4	0.96778
1168.6	0.96766
1168.8	0.96753
1169.0	0.96741
1169.2	0.96732
1169.4	0.96722
1169.6	0.96713
1169.8	0.96704
1170.0	0.96695
1170.2	0.96661
1170.4	0.96627
1170.6	0.96594
1170.8	0.9656
1171.0	0.96526
1171.2	0.96484
1171.4	0.96442
1171.6	0.964
1171.8	0.96358
1172.0	0.96316
1172.2	0.96258
1172.4	0.96201
1172.6	0.96143
1172.8	0.96085
1173.0	0.96027
1173.2	0.95986
1173.4	0.95944
1173.6	0.95902
1173.8	0.9586
1174.0	0.95818
1174.2	0.95822
1174.4	0.95825
1174.6	0.95829
1174.8	0.95832
1175.0	0.95835
1175.2	0.95817
1175.4	0.95798
1175.6	0.95779
1175.8	0.9576
1176.0	0.95741
1176.2	0.95751
1176.4	0.95761
1176.6	0.95771
1176.8	0.95781
1177.0	0.95791
1177.2	0.95814
1177.4	0.95837
1177.6	0.95861
1177.8	0.95884
1178.0	0.95908
1178.2	0.9595
1178.4	0.95992
1178.6	0.96035
1178.8	0.96077
1179.0	0.9612
1179.2	0.96141
1179.4	0.96163
1179.6	0.96184
1179.8	0.96205
1180.0	0.96227
1180.2	0.96246
1180.4	0.96264
1180.6	0.96283
1180.8	0.96302
1181.0	0.96321
1181.2	0.96351
1181.4	0.96381
1181.6	0.96411
1181.8	0.96441
1182.0	0.96471
1182.2	0.96495
1182.4	0.96519
1182.6	0.96542
1182.8	0.96566
1183.0	0.96589
1183.2	0.96607
1183.4	0.96625
1183.6	0.96643
1183.8	0.96661
1184.0	0.9668
1184.2	0.96647
1184.4	0.96614
1184.6	0.96582
1184.8	0.96549
1185.0	0.96517
1185.2	0.96506
1185.4	0.96495
1185.6	0.96484
1185.8	0.96474
1186.0	0.96463
1186.2	0.96453
1186.4	0.96443
1186.6	0.96433
1186.8	0.96423
1187.0	0.96413
1187.2	0.96409
1187.4	0.96406
1187.6	0.96402
1187.8	0.96398
1188.0	0.96395
1188.2	0.96369
1188.4	0.96342
1188.6	0.96316
1188.8	0.9629
1189.0	0.96263
1189.2	0.96258
1189.4	0.96252
1189.6	0.96247
1189.8	0.96241
1190.0	0.96236
1190.2	0.96277
1190.4	0.96318
1190.6	0.9636
1190.8	0.96401
1191.0	0.96442
1191.2	0.96475
1191.4	0.96508
1191.6	0.9654
1191.8	0.96573
1192.0	0.96606
1192.2	0.9664
1192.4	0.96675
1192.6	0.96709
1192.8	0.96743
1193.0	0.96777
1193.2	0.96796
1193.4	0.96814
1193.6	0.96832
1193.8	0.9685
1194.0	0.96869
1194.2	0.96944
1194.4	0.9702
1194.6	0.97096
1194.8	0.97172
1195.0	0.97248
1195.2	0.97274
1195.4	0.97301
1195.6	0.97327
1195.8	0.97354
1196.0	0.9738
1196.2	0.9739
1196.4	0.97399
1196.6	0.97408
1196.8	0.97418
1197.0	0.97427
1197.2	0.97426
1197.4	0.97426
1197.6	0.97425
1197.8	0.97425
1198.0	0.97424
1198.2	0.97399
1198.4	0.97373
1198.6	0.97348
1198.8	0.97323
1199.0	0.97297
1199.2	0.9732
1199.4	0.97342
1199.6	0.97364
1199.8	0.97387
1200.0	0.97409
1200.2	0.97402
1200.4	0.97394
1200.6	0.97386
1200.8	0.97379
1201.0	0.97371
1201.2	0.97307
1201.4	0.97243
1201.6	0.97179
1201.8	0.97116
1202.0	0.97052
1202.2	0.97021
1202.4	0.96991
1202.6	0.9696
1202.8	0.96929
1203.0	0.96898
1203.2	0.96854
1203.4	0.96809
1203.6	0.96764
1203.8	0.9672
1204.0	0.96675
1204.2	0.9665
1204.4	0.96625
1204.6	0.96599
1204.8	0.96574
1205.0	0.96549
1205.2	0.96513
1205.4	0.96476
1205.6	0.9644
1205.8	0.96404
1206.0	0.96368
1206.2	0.96386
1206.4	0.96403
1206.6	0.9642
1206.8	0.96437
1207.0	0.96455
1207.2	0.96477
1207.4	0.965
1207.6	0.96522
1207.8	0.96545
1208.0	0.96568
1208.2	0.96568
1208.4	0.96568
1208.6	0.96568
1208.8	0.96568
1209.0	0.96568
1209.2	0.96562
1209.4	0.96555
1209.6	0.96548
1209.8	0.96541
1210.0	0.96535
1210.2	0.96577
1210.4	0.96619
1210.6	0.96662
1210.8	0.96704
1211.0	0.96747
1211.2	0.9674
1211.4	0.96733
1211.6	0.96727
1211.8	0.9672
1212.0	0.96713
1212.2	0.96736
1212.4	0.9676
1212.6	0.96783
1212.8	0.96806
1213.0	0.96829
1213.2	0.96829
1213.4	0.9683
1213.6	0.9683
1213.8	0.96831
1214.0	0.96831
1214.2	0.968
1214.4	0.96768
1214.6	0.96736
1214.8	0.96704
1215.0	0.96672
1215.2	0.96629
1215.4	0.96587
1215.6	0.96544
1215.8	0.96501
1216.0	0.96458
1216.2	0.96412
1216.4	0.96365
1216.6	0.96318
1216.8	0.96271
1217.0	0.96224
1217.2	0.96179
1217.4	0.96133
1217.6	0.96087
1217.8	0.96041
1218.0	0.95995
1218.2	0.95945
1218.4	0.95895
1218.6	0.95845
1218.8	0.95795
1219.0	0.95745
1219.2	0.95721
1219.4	0.95696
1219.6	0.95672
1219.8	0.95648
1220.0	0.95624
1220.2	0.95586
1220.4	0.95548
1220.6	0.95511
1220.8	0.95473
1221.0	0.95435
1221.2	0.95425
1221.4	0.95414
1221.6	0.95403
1221.8	0.95392
1222.0	0.95382
1222.2	0.95376
1222.4	0.95371
1222.6	0.95366
1222.8	0.95361
1223.0	0.95356
1223.2	0.95387
1223.4	0.95418
1223.6	0.9545
1223.8	0.95481
1224.0	0.95512
1224.2	0.95514
1224.4	0.95516
1224.6	0.95518
1224.8	0.9552
1225.0	0.95522
1225.2	0.95591
1225.4	0.95661
1225.6	0.95731
1225.8	0.95801
1226.0	0.95871
1226.2	0.95909
1226.4	0.95947
1226.6	0.95984
1226.8	0.96022
1227.0	0.9606
1227.2	0.96106
1227.4	0.96152
1227.6	0.96198
1227.8	0.96244
1228.0	0.9629
1228.2	0.96345
1228.4	0.964
1228.6	0.96455
1228.8	0.9651
1229.0	0.96565
1229.2	0.96603
1229.4	0.96642
1229.6	0.96681
1229.8	0.9672
1230.0	0.96759
1230.2	0.96798
1230.4	0.96837
1230.6	0.96876
1230.8	0.96916
1231.0	0.96955
1231.2	0.96936
1231.4	0.96917
1231.6	0.96898
1231.8	0.96879
1232.0	0.9686
1232.2	0.96845
1232.4	0.96829
1232.6	0.96814
1232.8	0.96799
1233.0	0.96783
1233.2	0.96798
1233.4	0.96812
1233.6	0.96826
1233.8	0.9684
1234.0	0.96854
1234.2	0.96841
1234.4	0.96827
1234.6	0.96814
1234.8	0.968
1235.0	0.96787
1235.2	0.96767
1235.4	0.96747
1235.6	0.96728
1235.8	0.96708
1236.0	0.96689
1236.2	0.96678
1236.4	0.96668
1236.6	0.96658
1236.8	0.96648
1237.0	0.96637
1237.2	0.96646
1237.4	0.96654
1237.6	0.96663
1237.8	0.96671
1238.0	0.9668
1238.2	0.96687
1238.4	0.96694
1238.6	0.96701
1238.8	0.96709
1239.0	0.96716
1239.2	0.96716
1239.4	0.96716
1239.6	0.96716
1239.8	0.96717
1240.0	0.96717
1240.2	0.96757
1240.4	0.96797
1240.6	0.96837
1240.8	0.96878
1241.0	0.96918
1241.2	0.96929
1241.4	0.9694
1241.6	0.96951
1241.8	0.96963
1242.0	0.96974
1242.2	0.97034
1242.4	0.97095
1242.6	0.97155
1242.8	0.97216
1243.0	0.97276
1243.2	0.9729
1243.4	0.97303
1243.6	0.97317
1243.8	0.9733
1244.0	0.97344
1244.2	0.97344
1244.4	0.97344
1244.6	0.97344
1244.8	0.97344
1245.0	0.97344
1245.2	0.97379
1245.4	0.97414
1245.6	0.97449
1245.8	0.97483
1246.0	0.97518
1246.2	0.97489
1246.4	0.9746
1246.6	0.97432
1246.8	0.97403
1247.0	0.97374
1247.2	0.97356
1247.4	0.97338
1247.6	0.9732
1247.8	0.97302
1248.0	0.97284
1248.2	0.97253
1248.4	0.97222
1248.6	0.97191
1248.8	0.97161
1249.0	0.9713
1249.2	0.97107
1249.4	0.97084
1249.6	0.97062
1249.8	0.97039
1250.0	0.97017
1250.2	0.9698
1250.4	0.96944
1250.6	0.96907
1250.8	0.96871
1251.0	0.96835
1251.2	0.96837
1251.4	0.9684
1251.6	0.96842
1251.8	0.96845
1252.0	0.96847
1252.2	0.9682
1252.4	0.96792
1252.6	0.96765
1252.8	0.96738
1253.0	0.9671
1253.2	0.96677
1253.4	0.96644
1253.6	0.96611
1253.8	0.96578
1254.0	0.96545
1254.2	0.96513
1254.4	0.96482
1254.6	0.96451
1254.8	0.96419
1255.0	0.96388
1255.2	0.9636
1255.4	0.96332
1255.6	0.96303
1255.8	0.96275
1256.0	0.96247
1256.2	0.96245
1256.4	0.96242
1256.6	0.96239
1256.8	0.96236
1257.0	0.96234
1257.2	0.96243
1257.4	0.96253
1257.6	0.96263
1257.8	0.96272
1258.0	0.96282
1258.2	0.963
1258.4	0.96319
1258.6	0.96338
1258.8	0.96356
1259.0	0.96375
1259.2	0.96387
1259.4	0.96399
1259.6	0.9641
1259.8	0.96422
1260.0	0.96434
1260.2	0.96432
1260.4	0.96429
1260.6	0.96427
1260.8	0.96425
1261.0	0.96423
1261.2	0.96425
1261.4	0.96427
1261.6	0.96429
1261.8	0.96432
1262.0	0.96434
1262.2	0.96448
1262.4	0.96463
1262.6	0.96477
1262.8	0.96491
1263.0	0.96506
1263.2	0.96464
1263.4	0.96421
1263.6	0.96379
1263.8	0.96337
1264.0	0.96295
1264.2	0.963
1264.4	0.96304
1264.6	0.96308
1264.8	0.96313
1265.0	0.96317
1265.2	0.96272
1265.4	0.96227
1265.6	0.96182
1265.8	0.96136
1266.0	0.96091
1266.2	0.96085
1266.4	0.96079
1266.6	0.96072
1266.8	0.96066
1267.0	0.9606
1267.2	0.96014
1267.4	0.95968
1267.6	0.95922
1267.8	0.95876
1268.0	0.9583
1268.2	0.95833
1268.4	0.95836
1268.6	0.95839
1268.8	0.95842
1269.0	0.95845
1269.2	0.95796
1269.4	0.95748
1269.6	0.957
1269.8	0.95652
1270.0	0.95604
1270.2	0.95595
1270.4	0.95585
1270.6	0.95576
1270.8	0.95567
1271.0	0.95558
1271.2	0.95561
1271.4	0.95564
1271.6	0.95567
1271.8	0.9557
1272.0	0.95573
1272.2	0.95594
1272.4	0.95615
1272.6	0.95635
1272.8	0.95656
1273.0	0.95677
1273.2	0.95679
1273.4	0.95681
1273.6	0.95683
1273.8	0.95686
1274.0	0.95688
1274.2	0.95709
1274.4	0.9573
1274.6	0.95751
1274.8	0.95772
1275.0	0.95793
1275.2	0.95805
1275.4	0.95817
1275.6	0.95829
1275.8	0.95841
1276.0	0.95854
1276.2	0.95876
1276.4	0.95898
1276.6	0.9592
1276.8	0.95943
1277.0	0.95965
1277.2	0.9601
1277.4	0.96056
1277.6	0.96102
1277.8	0.96147
1278.0	0.96193
1278.2	0.96241
1278.4	0.9629
1278.6	0.96338
1278.8	0.96387
1279.0	0.96435
1279.2	0.96429
1279.4	0.96423
1279.6	0.96417
1279.8	0.96411
1280.0	0.96405
1280.2	0.9646
1280.4	0.96515
1280.6	0.96571
1280.8	0.96626
1281.0	0.96681
1281.2	0.96708
1281.4	0.96736
1281.6	0.96763
1281.8	0.9679
1282.0	0.96817
1282.2	0.96816
1282.4	0.96814
1282.6	0.96813
1282.8	0.96811
1283.0	0.9681
1283.2	0.9681
1283.4	0.96811
1283.6	0.96812
1283.8	0.96813
1284.0	0.96813
1284.2	0.96801
1284.4	0.96788
1284.6	0.96776
1284.8	0.96764
1285.0	0.96751
1285.2	0.96732
1285.4	0.96713
1285.6	0.96694
1285.8	0.96674
1286.0	0.96655
1286.2	0.9666
1286.4	0.96664
1286.6	0.96669
1286.8	0.96673
1287.0	0.96678
1287.2	0.96652
1287.4	0.96625
1287.6	0.96599
1287.8	0.96573
1288.0	0.96546
1288.2	0.96611
1288.4	0.96676
1288.6	0.96741
1288.8	0.96806
1289.0	0.96871
1289.2	0.96854
1289.4	0.96837
1289.6	0.96819
1289.8	0.96802
1290.0	0.96785
1290.2	0.96775
1290.4	0.96766
1290.6	0.96756
1290.8	0.96747
1291.0	0.96737
1291.2	0.96758
1291.4	0.96779
1291.6	0.96799
1291.8	0.9682
1292.0	0.96841
1292.2	0.96872
1292.4	0.96903
1292.6	0.96934
1292.8	0.96965
1293.0	0.96996
1293.2	0.97033
1293.4	0.9707
1293.6	0.97107
1293.8	0.97143
1294.0	0.9718
1294.2	0.97196
1294.4	0.97211
1294.6	0.97226
1294.8	0.97241
1295.0	0.97257
1295.2	0.97282
1295.4	0.97308
1295.6	0.97333
1295.8	0.97359
1296.0	0.97384
1296.2	0.9738
1296.4	0.97375
1296.6	0.97371
1296.8	0.97367
1297.0	0.97362
1297.2	0.97358
1297.4	0.97354
1297.6	0.97349
1297.8	0.97345
1298.0	0.9734
1298.2	0.97337
1298.4	0.97333
1298.6	0.9733
1298.8	0.97326
1299.0	0.97323
1299.2	0.97306
1299.4	0.9729
1299.6	0.97273
1299.8	0.97257
1300.0	0.9724
1300.2	0.97176
1300.4	0.97113
1300.6	0.97049
1300.8	0.96986
1301.0	0.96922
1301.2	0.96909
1301.4	0.96895
1301.6	0.96881
1301.8	0.96867
1302.0	0.96853
1302.2	0.96809
1302.4	0.96765
1302.6	0.96722
1302.8	0.96678
1303.0	0.96634
1303.2	0.96583
1303.4	0.96532
1303.6	0.9648
1303.8	0.96429
1304.0	0.96378
1304.2	0.96376
1304.4	0.96375
1304.6	0.96373
1304.8	0.96372
1305.0	0.9637
1305.2	0.96329
1305.4	0.96288
1305.6	0.96248
1305.8	0.96207
1306.0	0.96166
1306.2	0.96142
1306.4	0.96117
1306.6	0.96093
1306.8	0.96069
1307.0	0.96045
1307.2	0.96025
1307.4	0.96005
1307.6	0.95985
1307.8	0.95966
1308.0	0.95946
1308.2	0.95934
1308.4	0.95921
1308.6	0.95909
1308.8	0.95897
1309.0	0.95884
1309.2	0.95897
1309.4	0.9591
1309.6	0.95923
1309.8	0.95936
1310.0	0.95948
1310.2	0.95948
1310.4	0.95948
1310.6	0.95948
1310.8	0.95948
1311.0	0.95948
1311.2	0.95995
1311.4	0.96044
1311.6	0.96092
1311.8	0.9614
1312.0	0.96188
1312.2	0.96156
1312.4	0.96124
1312.6	0.96093
1312.8	0.96061
1313.0	0.9603
1313.2	0.96056
1313.4	0.96083
1313.6	0.96109
1313.8	0.96136
1314.0	0.96163
1314.2	0.96173
1314.4	0.96182
1314.6	0.96192
1314.8	0.96202
1315.0	0.96212
1315.2	0.96208
1315.4	0.96203
1315.6	0.96199
1315.8	0.96194
1316.0	0.9619
1316.2	0.96179
1316.4	0.96169
1316.6	0.96158
1316.8	0.96148
1317.0	0.96138
1317.2	0.96151
1317.4	0.96165
1317.6	0.96179
1317.8	0.96192
1318.0	0.96206
1318.2	0.96204
1318.4	0.96201
1318.6	0.96199
1318.8	0.96196
1319.0	0.96194
1319.2	0.96159
1319.4	0.96124
1319.6	0.96089
1319.8	0.96054
1320.0	0.96019
1320.2	0.96017
1320.4	0.96014
1320.6	0.96012
1320.8	0.9601
1321.0	0.96007
1321.2	0.9599
1321.4	0.95974
1321.6	0.95957
1321.8	0.9594
1322.0	0.95923
1322.2	0.95886
1322.4	0.95849
1322.6	0.95813
1322.8	0.95776
1323.0	0.95739
1323.2	0.95715
1323.4	0.95691
1323.6	0.95667
1323.8	0.95644
1324.0	0.9562
1324.2	0.95583
1324.4	0.95546
1324.6	0.95508
1324.8	0.95471
1325.0	0.95434
1325.2	0.95463
1325.4	0.95492
1325.6	0.95521
1325.8	0.9555
1326.0	0.95579
1326.2	0.95637
1326.4	0.95695
1326.6	0.95754
1326.8	0.95812
1327.0	0.95871
1327.2	0.95861
1327.4	0.9585
1327.6	0.9584
1327.8	0.9583
1328.0	0.95819
1328.2	0.95855
1328.4	0.95891
1328.6	0.95927
1328.8	0.95963
1329.0	0.96
1329.2	0.96029
1329.4	0.96058
1329.6	0.96088
1329.8	0.96117
1330.0	0.96147
1330.2	0.9617
1330.4	0.96194
1330.6	0.96217
1330.8	0.96241
1331.0	0.96264
1331.2	0.96285
1331.4	0.96307
1331.6	0.96328
1331.8	0.96349
1332.0	0.9637
1332.2	0.96399
1332.4	0.96427
1332.6	0.96456
1332.8	0.96484
1333.0	0.96513
1333.2	0.96585
1333.4	0.96658
1333.6	0.9673
1333.8	0.96803
1334.0	0.96876
1334.2	0.96882
1334.4	0.96888
1334.6	0.96895
1334.8	0.96901
1335.0	0.96907
1335.2	0.96923
1335.4	0.96939
1335.6	0.96954
1335.8	0.9697
1336.0	0.96986
1336.2	0.9699
1336.4	0.96994
1336.6	0.96999
1336.8	0.97003
1337.0	0.97008
1337.2	0.97036
1337.4	0.97064
1337.6	0.97092
1337.8	0.9712
1338.0	0.97148
1338.2	0.9713
1338.4	0.97111
1338.6	0.97093
1338.8	0.97074
1339.0	0.97056
1339.2	0.97021
1339.4	0.96987
1339.6	0.96952
1339.8	0.96917
1340.0	0.96883
1340.2	0.96877
1340.4	0.96872
1340.6	0.96867
1340.8	0.96862
1341.0	0.96857
1341.2	0.96859
1341.4	0.96861
1341.6	0.96863
1341.8	0.96866
1342.0	0.96868
1342.2	0.96858
1342.4	0.96847
1342.6	0.96837
1342.8	0.96827
1343.0	0.96816
1343.2	0.96811
1343.4	0.96806
1343.6	0.96802
1343.8	0.96797
1344.0	0.96792
1344.2	0.96801
1344.4	0.9681
1344.6	0.96819
1344.8	0.96828
1345.0	0.96837
1345.2	0.96827
1345.4	0.96817
1345.6	0.96807
1345.8	0.96797
1346.0	0.96787
1346.2	0.96773
1346.4	0.9676
1346.6	0.96746
1346.8	0.96732
1347.0	0.96719
1347.2	0.96732
1347.4	0.96746
1347.6	0.9676
1347.8	0.96773
1348.0	0.96787
1348.2	0.96806
1348.4	0.96826
1348.6	0.96845
1348.8	0.96864
1349.0	0.96884
1349.2	0.96902
1349.4	0.9692
1349.6	0.96938
1349.8	0.96956
1350.0	0.96974
1350.2	0.97013
1350.4	0.97052
1350.6	0.97091
1350.8	0.9713
1351.0	0.97169
1351.2	0.97178
1351.4	0.97187
1351.6	0.97195
1351.8	0.97204
1352.0	0.97213
1352.2	0.97214
1352.4	0.97216
1352.6	0.97218
1352.8	0.97219
1353.0	0.97221
1353.2	0.97224
1353.4	0.97227
1353.6	0.9723
1353.8	0.97233
1354.0	0.97236
1354.2	0.97237
1354.4	0.97239
1354.6	0.9724
1354.8	0.97241
1355.0	0.97242
1355.2	0.97222
1355.4	0.97202
1355.6	0.97181
1355.8	0.97161
1356.0	0.97141
1356.2	0.97129
1356.4	0.97117
1356.6	0.97105
1356.8	0.97093
1357.0	0.97081
1357.2	0.97027
1357.4	0.96974
1357.6	0.96921
1357.8	0.96867
1358.0	0.96814
1358.2	0.96774
1358.4	0.96733
1358.6	0.96693
1358.8	0.96652
1359.0	0.96612
1359.2	0.96587
1359.4	0.96563
1359.6	0.96538
1359.8	0.96514
1360.0	0.96489
1360.2	0.96443
1360.4	0.96397
1360.6	0.9635
1360.8	0.96304
1361.0	0.96258
1361.2	0.9623
1361.4	0.96203
1361.6	0.96176
1361.8	0.96149
1362.0	0.96122
1362.2	0.9612
1362.4	0.96117
1362.6	0.96115
1362.8	0.96113
1363.0	0.9611
1363.2	0.96085
1363.4	0.96061
1363.6	0.96036
1363.8	0.96011
1364.0	0.95986
1364.2	0.95947
1364.4	0.95907
1364.6	0.95867
1364.8	0.95828
1365.0	0.95788
1365.2	0.95794
1365.4	0.95799
1365.6	0.95805
1365.8	0.9581
1366.0	0.95816
1366.2	0.95795
1366.4	0.95774
1366.6	0.95752
1366.8	0.95731
1367.0	0.9571
1367.2	0.95721
1367.4	0.95732
1367.6	0.95743
1367.8	0.95754
1368.0	0.95765
1368.2	0.95794
1368.4	0.95823
1368.6	0.95852
1368.8	0.95881
1369.0	0.9591
1369.2	0.95917
1369.4	0.95924
1369.6	0.95931
1369.8	0.95938
1370.0	0.95945
1370.2	0.95971
1370.4	0.95997
1370.6	0.96023
1370.8	0.96049
1371.0	0.96075
1371.2	0.96076
1371.4	0.96077
1371.6	0.96077
1371.8	0.96078
1372.0	0.96079
1372.2	0.96103
1372.4	0.96128
1372.6	0.96152
1372.8	0.96177
1373.0	0.96201
1373.2	0.96212
1373.4	0.96222
1373.6	0.96232
1373.8	0.96242
1374.0	0.96252
1374.2	0.96258
1374.4	0.96264
1374.6	0.96271
1374.8	0.96277
1375.0	0.96283
1375.2	0.96279
1375.4	0.96276
1375.6	0.96273
1375.8	0.96269
1376.0	0.96266
1376.2	0.96262
1376.4	0.96259
1376.6	0.96255
1376.8	0.96252
1377.0	0.96248
1377.2	0.96227
1377.4	0.96206
1377.6	0.96185
1377.8	0.96165
1378.0	0.96144
1378.2	0.96127
1378.4	0.96111
1378.6	0.96094
1378.8	0.96078
1379.0	0.96061
1379.2	0.9604
1379.4	0.96019
1379.6	0.95999
1379.8	0.95978
1380.0	0.95957
1380.2	0.95957
1380.4	0.95956
1380.6	0.95956
1380.8	0.95955
1381.0	0.95955
1381.2	0.95914
1381.4	0.95873
1381.6	0.95832
1381.8	0.95791
1382.0	0.9575
1382.2	0.957
1382.4	0.95651
1382.6	0.95602
1382.8	0.95553
1383.0	0.95504
1383.2	0.95491
1383.4	0.95478
1383.6	0.95466
1383.8	0.95453
1384.0	0.95441
1384.2	0.95457
1384.4	0.95473
1384.6	0.95489
1384.8	0.95506
1385.0	0.95522
1385.2	0.9556
1385.4	0.95599
1385.6	0.95637
1385.8	0.95676
1386.0	0.95714
1386.2	0.95741
1386.4	0.95768
1386.6	0.95794
1386.8	0.95821
1387.0	0.95848
1387.2	0.95856
1387.4	0.95863
1387.6	0.95871
1387.8	0.95879
1388.0	0.95887
1388.2	0.95962
1388.4	0.96038
1388.6	0.96114
1388.8	0.9619
1389.0	0.96266
1389.2	0.96296
1389.4	0.96326
1389.6	0.96355
1389.8	0.96385
1390.0	0.96415
1390.2	0.96436
1390.4	0.96458
1390.6	0.96479
1390.8	0.96501
1391.0	0.96522
1391.2	0.96563
1391.4	0.96603
1391.6	0.96643
1391.8	0.96684
1392.0	0.96724
1392.2	0.96748
1392.4	0.96773
1392.6	0.96797
1392.8	0.96821
1393.0	0.96845
1393.2	0.96873
1393.4	0.96902
1393.6	0.9693
1393.8	0.96958
1394.0	0.96987
1394.2	0.96995
1394.4	0.97003
1394.6	0.97012
1394.8	0.9702
1395.0	0.97028
1395.2	0.97033
1395.4	0.97038
1395.6	0.97042
1395.8	0.97047
1396.0	0.97052
1396.2	0.97068
1396.4	0.97084
1396.6	0.97101
1396.8	0.97117
1397.0	0.97133
1397.2	0.97122
1397.4	0.9711
1397.6	0.97098
1397.8	0.97086
1398.0	0.97075
1398.2	0.97065
1398.4	0.97056
1398.6	0.97046
1398.8	0.97036
1399.0	0.97027
1399.2	0.97009
1399.4	0.96991
1399.6	0.96973
1399.8	0.96954
1400.0	0.96936
1400.2	0.96909
1400.4	0.96881
1400.6	0.96853
1400.8	0.96825
1401.0	0.96797
1401.2	0.96777
1401.4	0.96757
1401.6	0.96737
1401.8	0.96717
1402.0	0.96697
1402.2	0.96678
1402.4	0.96659
1402.6	0.9664
1402.8	0.96621
1403.0	0.96602
1403.2	0.96579
1403.4	0.96556
1403.6	0.96533
1403.8	0.9651
1404.0	0.96487
1404.2	0.96497
1404.4	0.96507
1404.6	0.96517
1404.8	0.96527
1405.0	0.96536
1405.2	0.96534
1405.4	0.96532
1405.6	0.96529
1405.8	0.96527
1406.0	0.96525
1406.2	0.96541
1406.4	0.96557
1406.6	0.96574
1406.8	0.9659
1407.0	0.96607
1407.2	0.96606
1407.4	0.96606
1407.6	0.96606
1407.8	0.96606
1408.0	0.96605
1408.2	0.96624
1408.4	0.96643
1408.6	0.96662
1408.8	0.96681
1409.0	0.967
1409.2	0.96732
1409.4	0.96763
1409.6	0.96794
1409.8	0.96826
1410.0	0.96857
1410.2	0.96847
1410.4	0.96838
1410.6	0.96829
1410.8	0.96819
1411.0	0.9681
1411.2	0.96839
1411.4	0.96869
1411.6	0.96899
1411.8	0.96928
1412.0	0.96958
1412.2	0.9696
1412.4	0.96962
1412.6	0.96964
1412.8	0.96967
1413.0	0.96969
1413.2	0.9699
1413.4	0.97011
1413.6	0.97032
1413.8	0.97053
1414.0	0.97074
1414.2	0.97076
1414.4	0.97077
1414.6	0.97079
1414.8	0.97081
1415.0	0.97083
1415.2	0.9707
1415.4	0.97058
1415.6	0.97045
1415.8	0.97033
1416.0	0.9702
1416.2	0.97031
1416.4	0.97041
1416.6	0.97052
1416.8	0.97063
1417.0	0.97073
1417.2	0.97026
1417.4	0.96979
1417.6	0.96932
1417.8	0.96885
1418.0	0.96838
1418.2	0.96823
1418.4	0.96808
1418.6	0.96793
1418.8	0.96778
1419.0	0.96763
1419.2	0.96726
1419.4	0.9669
1419.6	0.96654
1419.8	0.96618
1420.0	0.96581
1420.2	0.96551
1420.4	0.96521
1420.6	0.96491
1420.8	0.9646
1421.0	0.9643
1421.2	0.96392
1421.4	0.96353
1421.6	0.96315
1421.8	0.96276
1422.0	0.96238
1422.2	0.96212
1422.4	0.96187
1422.6	0.96161
1422.8	0.96136
1423.0	0.9611
1423.2	0.96077
1423.4	0.96044
1423.6	0.96011
1423.8	0.95977
1424.0	0.95944
1424.2	0.9592
1424.4	0.95896
1424.6	0.95872
1424.8	0.95848
1425.0	0.95824
1425.2	0.95797
1425.4	0.95769
1425.6	0.95742
1425.8	0.95714
1426.0	0.95687
1426.2	0.95683
1426.4	0.95679
1426.6	0.95675
1426.8	0.95671
1427.0	0.95668
1427.2	0.95653
1427.4	0.95639
1427.6	0.95625
1427.8	0.95611
1428.0	0.95597
1428.2	0.95584
1428.4	0.95571
1428.6	0.95558
1428.8	0.95546
1429.0	0.95533
1429.2	0.9554
1429.4	0.95547
1429.6	0.95554
1429.8	0.95562
1430.0	0.95569
1430.2	0.95587
1430.4	0.95604
1430.6	0.95622
1430.8	0.9564
1431.0	0.95658
1431.2	0.95702
1431.4	0.95746
1431.6	0.9579
1431.8	0.95835
1432.0	0.95879
1432.2	0.95889
1432.4	0.95899
1432.6	0.95908
1432.8	0.95918
1433.0	0.95928
1433.2	0.9595
1433.4	0.95973
1433.6	0.95995
1433.8	0.96017
1434.0	0.9604
1434.2	0.96078
1434.4	0.96116
1434.6	0.96154
1434.8	0.96192
1435.0	0.9623
1435.2	0.96224
1435.4	0.96218
1435.6	0.96213
1435.8	0.96207
1436.0	0.96201
1436.2	0.96223
1436.4	0.96246
1436.6	0.96268
1436.8	0.9629
1437.0	0.96312
1437.2	0.96343
1437.4	0.96374
1437.6	0.96404
1437.8	0.96435
1438.0	0.96465
1438.2	0.96457
1438.4	0.96448
1438.6	0.96439
1438.8	0.9643
1439.0	0.96421
1439.2	0.96444
1439.4	0.96467
1439.6	0.96491
1439.8	0.96514
1440.0	0.96537
1440.2	0.96517
1440.4	0.96497
1440.6	0.96477
1440.8	0.96457
1441.0	0.96437
1441.2	0.96409
1441.4	0.96382
1441.6	0.96354
1441.8	0.96327
1442.0	0.96299
1442.2	0.96297
1442.4	0.96294
1442.6	0.96292
1442.8	0.9629
1443.0	0.96287
1443.2	0.96283
1443.4	0.96278
1443.6	0.96274
1443.8	0.96269
1444.0	0.96264
1444.2	0.96242
1444.4	0.96219
1444.6	0.96196
1444.8	0.96173
1445.0	0.96151
1445.2	0.96159
1445.4	0.96168
1445.6	0.96177
1445.8	0.96185
1446.0	0.96194
1446.2	0.96169
1446.4	0.96143
1446.6	0.96118
1446.8	0.96093
1447.0	0.96067
1447.2	0.96053
1447.4	0.96039
1447.6	0.96026
1447.8	0.96012
1448.0	0.95998
1448.2	0.95966
1448.4	0.95935
1448.6	0.95904
1448.8	0.95873
1449.0	0.95842
1449.2	0.95867
1449.4	0.95893
1449.6	0.95918
1449.8	0.95944
1450.0	0.95969
1450.2	0.96021
1450.4	0.96072
1450.6	0.96123
1450.8	0.96174
1451.0	0.96225
1451.2	0.96224
1451.4	0.96222
1451.6	0.96221
1451.8	0.96219
1452.0	0.96218
1452.2	0.96262
1452.4	0.96306
1452.6	0.96351
1452.8	0.96395
1453.0	0.96439
1453.2	0.96455
1453.4	0.96472
1453.6	0.96488
1453.8	0.96504
1454.0	0.9652
1454.2	0.96574
1454.4	0.96629
1454.6	0.96684
1454.8	0.96739
1455.0	0.96793
1455.2	0.96804
1455.4	0.96814
1455.6	0.96824
1455.8	0.96834
1456.0	0.96844
1456.2	0.9686
1456.4	0.96875
1456.6	0.9689
1456.8	0.96906
1457.0	0.96921
1457.2	0.9695
1457.4	0.96979
1457.6	0.97008
1457.8	0.97037
1458.0	0.97066
1458.2	0.97062
1458.4	0.97058
1458.6	0.97055
1458.8	0.97051
1459.0	0.97048
1459.2	0.97062
1459.4	0.97077
1459.6	0.97091
1459.8	0.97106
1460.0	0.9712
1460.2	0.97134
1460.4	0.97148
1460.6	0.97163
1460.8	0.97177
1461.0	0.97191
1461.2	0.97177
1461.4	0.97164
1461.6	0.9715
1461.8	0.97137
1462.0	0.97123
1462.2	0.97114
1462.4	0.97105
1462.6	0.97096
1462.8	0.97087
1463.0	0.97078
1463.2	0.9708
1463.4	0.97082
1463.6	0.97084
1463.8	0.97086
1464.0	0.97088
1464.2	0.97062
1464.4	0.97037
1464.6	0.97011
1464.8	0.96986
1465.0	0.9696
1465.2	0.96929
1465.4	0.96899
1465.6	0.96868
1465.8	0.96837
1466.0	0.96806
1466.2	0.96779
1466.4	0.96751
1466.6	0.96724
1466.8	0.96696
1467.0	0.96669
1467.2	0.96628
1467.4	0.96588
1467.6	0.96548
1467.8	0.96508
1468.0	0.96468
1468.2	0.96409
1468.4	0.96351
1468.6	0.96293
1468.8	0.96234
1469.0	0.96176
1469.2	0.96204
1469.4	0.96233
1469.6	0.96261
1469.8	0.9629
1470.0	0.96318
1470.2	0.96293
1470.4	0.96267
1470.6	0.96241
1470.8	0.96216
1471.0	0.9619
1471.2	0.96171
1471.4	0.96153
1471.6	0.96134
1471.8	0.96115
1472.0	0.96096
1472.2	0.96102
1472.4	0.96107
1472.6	0.96113
1472.8	0.96118
1473.0	0.96124
1473.2	0.96149
1473.4	0.96173
1473.6	0.96198
1473.8	0.96223
1474.0	0.96248
1474.2	0.9623
1474.4	0.96211
1474.6	0.96193
1474.8	0.96175
1475.0	0.96157
1475.2	0.96168
1475.4	0.9618
1475.6	0.96192
1475.8	0.96203
1476.0	0.96215
1476.2	0.96232
1476.4	0.96249
1476.6	0.96265
1476.8	0.96282
1477.0	0.96299
1477.2	0.96297
1477.4	0.96295
1477.6	0.96292
1477.8	0.9629
1478.0	0.96287
1478.2	0.96275
1478.4	0.96263
1478.6	0.96251
1478.8	0.96239
1479.0	0.96226
1479.2	0.96225
1479.4	0.96223
1479.6	0.96221
1479.8	0.96219
1480.0	0.96217
1480.2	0.96268
1480.4	0.96319
1480.6	0.9637
1480.8	0.96421
1481.0	0.96473
1481.2	0.96479
1481.4	0.96485
1481.6	0.96492
1481.8	0.96498
1482.0	0.96504
1482.2	0.96505
1482.4	0.96506
1482.6	0.96507
1482.8	0.96509
1483.0	0.9651
1483.2	0.96471
1483.4	0.96432
1483.6	0.96394
1483.8	0.96355
1484.0	0.96317
1484.2	0.96313
1484.4	0.9631
1484.6	0.96306
1484.8	0.96303
1485.0	0.96299
1485.2	0.96274
1485.4	0.9625
1485.6	0.96225
1485.8	0.962
1486.0	0.96176
1486.2	0.96201
1486.4	0.96226
1486.6	0.96251
1486.8	0.96277
1487.0	0.96302
1487.2	0.96284
1487.4	0.96266
1487.6	0.96248
1487.8	0.9623
1488.0	0.96211
1488.2	0.96168
1488.4	0.96124
1488.6	0.96081
1488.8	0.96037
1489.0	0.95993
1489.2	0.95988
1489.4	0.95983
1489.6	0.95977
1489.8	0.95972
1490.0	0.95966
1490.2	0.95927
1490.4	0.95888
1490.6	0.95849
1490.8	0.9581
1491.0	0.95772
1491.2	0.95751
1491.4	0.9573
1491.6	0.95709
1491.8	0.95688
1492.0	0.95667
1492.2	0.95639
1492.4	0.95612
1492.6	0.95584
1492.8	0.95557
1493.0	0.95529
1493.2	0.9553
1493.4	0.9553
1493.6	0.95531
1493.8	0.95531
1494.0	0.95532
1494.2	0.95522
1494.4	0.95513
1494.6	0.95503
1494.8	0.95494
1495.0	0.95484
1495.2	0.95469
1495.4	0.95453
1495.6	0.95438
1495.8	0.95422
1496.0	0.95407
1496.2	0.95417
1496.4	0.95427
1496.6	0.95436
1496.8	0.95446
1497.0	0.95456
1497.2	0.95476
1497.4	0.95495
1497.6	0.95515
1497.8	0.95535
1498.0	0.95555
1498.2	0.95587
1498.4	0.95619
1498.6	0.95651
1498.8	0.95684
1499.0	0.95716
1499.2	0.9572
1499.4	0.95723
1499.6	0.95727
1499.8	0.9573
1500.0	0.95734
1500.2	0.95765
1500.4	0.95797
1500.6	0.95829
1500.8	0.9586
1501.0	0.95892
1501.2	0.95929
1501.4	0.95967
1501.6	0.96005
1501.8	0.96042
1502.0	0.9608
1502.2	0.96108
1502.4	0.96136
1502.6	0.96164
1502.8	0.96191
1503.0	0.96219
1503.2	0.96238
1503.4	0.96256
1503.6	0.96275
1503.8	0.96293
1504.0	0.96312
1504.2	0.96348
1504.4	0.96385
1504.6	0.96421
1504.8	0.96457
1505.0	0.96494
1505.2	0.96507
1505.4	0.9652
1505.6	0.96533
1505.8	0.96546
1506.0	0.96558
1506.2	0.96565
1506.4	0.96571
1506.6	0.96577
1506.8	0.96583
1507.0	0.9659
1507.2	0.96606
1507.4	0.96623
1507.6	0.9664
1507.8	0.96657
1508.0	0.96674
1508.2	0.9668
1508.4	0.96686
1508.6	0.96692
1508.8	0.96699
1509.0	0.96705
1509.2	0.96683
1509.4	0.96661
1509.6	0.96639
1509.8	0.96617
1510.0	0.96595
1510.2	0.96599
1510.4	0.96603
1510.6	0.96606
1510.8	0.9661
1511.0	0.96614
1511.2	0.9662
1511.4	0.96627
1511.6	0.96634
1511.8	0.96641
1512.0	0.96648
1512.2	0.96629
1512.4	0.9661
1512.6	0.96591
1512.8	0.96572
1513.0	0.96553
1513.2	0.96523
1513.4	0.96492
1513.6	0.96462
1513.8	0.96431
1514.0	0.96401
1514.2	0.96385
1514.4	0.9637
1514.6	0.96354
1514.8	0.96339
1515.0	0.96323
1515.2	0.96312
1515.4	0.96301
1515.6	0.96291
1515.8	0.9628
1516.0	0.96269
1516.2	0.9628
1516.4	0.96291
1516.6	0.96302
1516.8	0.96313
1517.0	0.96324
1517.2	0.96293
1517.4	0.96261
1517.6	0.9623
1517.8	0.96199
1518.0	0.96168
1518.2	0.96159
1518.4	0.9615
1518.6	0.96141
1518.8	0.96133
1519.0	0.96124
1519.2	0.96132
1519.4	0.9614
1519.6	0.96148
1519.8	0.96156
1520.0	0.96164
1520.2	0.96179
1520.4	0.96195
1520.6	0.9621
1520.8	0.96226
1521.0	0.96241
1521.2	0.96254
1521.4	0.96268
1521.6	0.96281
1521.8	0.96295
1522.0	0.96308
1522.2	0.96315
1522.4	0.96322
1522.6	0.9633
1522.8	0.96337
1523.0	0.96344
1523.2	0.96409
1523.4	0.96473
1523.6	0.96538
1523.8	0.96602
1524.0	0.96667
1524.2	0.96648
1524.4	0.96629
1524.6	0.9661
1524.8	0.96592
1525.0	0.96573
1525.2	0.96605
1525.4	0.96638
1525.6	0.96671
1525.8	0.96704
1526.0	0.96737
1526.2	0.96749
1526.4	0.96762
1526.6	0.96774
1526.8	0.96786
1527.0	0.96799
1527.2	0.96812
1527.4	0.96825
1527.6	0.96838
1527.8	0.9685
1528.0	0.96863
1528.2	0.96881
1528.4	0.96899
1528.6	0.96917
1528.8	0.96934
1529.0	0.96952
1529.2	0.96991
1529.4	0.97029
1529.6	0.97068
1529.8	0.97106
1530.0	0.97145
1530.2	0.97113
1530.4	0.97081
1530.6	0.97049
1530.8	0.97017
1531.0	0.96985
1531.2	0.96966
1531.4	0.96948
1531.6	0.96929
1531.8	0.9691
1532.0	0.96891
1532.2	0.96905
1532.4	0.96919
1532.6	0.96933
1532.8	0.96947
1533.0	0.96961
1533.2	0.96891
1533.4	0.96822
1533.6	0.96753
1533.8	0.96684
1534.0	0.96614
1534.2	0.96608
1534.4	0.96602
1534.6	0.96596
1534.8	0.96589
1535.0	0.96583
1535.2	0.9656
1535.4	0.96537
1535.6	0.96515
1535.8	0.96492
1536.0	0.96469
1536.2	0.96471
1536.4	0.96473
1536.6	0.96475
1536.8	0.96477
1537.0	0.96479
1537.2	0.96418
1537.4	0.96357
1537.6	0.96295
1537.8	0.96234
1538.0	0.96173
1538.2	0.96161
1538.4	0.9615
1538.6	0.96138
1538.8	0.96126
1539.0	0.96115
1539.2	0.9614
1539.4	0.96165
1539.6	0.9619
1539.8	0.96215
1540.0	0.9624
1540.2	0.96177
1540.4	0.96113
1540.6	0.9605
1540.8	0.95986
1541.0	0.95923
1541.2	0.95865
1541.4	0.95807
1541.6	0.95749
1541.8	0.95692
1542.0	0.95634
1542.2	0.95655
1542.4	0.95676
1542.6	0.95697
1542.8	0.95717
1543.0	0.95738
1543.2	0.95717
1543.4	0.95696
1543.6	0.95674
1543.8	0.95653
1544.0	0.95631
1544.2	0.95636
1544.4	0.95641
1544.6	0.95645
1544.8	0.9565
1545.0	0.95655
1545.2	0.95654
1545.4	0.95654
1545.6	0.95654
1545.8	0.95653
1546.0	0.95653
1546.2	0.9566
1546.4	0.95668
1546.6	0.95675
1546.8	0.95682
1547.0	0.9569
1547.2	0.95731
1547.4	0.95773
1547.6	0.95814
1547.8	0.95856
1548.0	0.95897
1548.2	0.95887
1548.4	0.95876
1548.6	0.95866
1548.8	0.95855
1549.0	0.95844
1549.2	0.95852
1549.4	0.95859
1549.6	0.95866
1549.8	0.95874
1550.0	0.95881
1550.2	0.95916
1550.4	0.95952
1550.6	0.95987
1550.8	0.96023
1551.0	0.96059
1551.2	0.96074
1551.4	0.96089
1551.6	0.96105
1551.8	0.9612
1552.0	0.96135
1552.2	0.96156
1552.4	0.96176
1552.6	0.96197
1552.8	0.96217
1553.0	0.96238
1553.2	0.96231
1553.4	0.96223
1553.6	0.96216
1553.8	0.96209
1554.0	0.96202
1554.2	0.96214
1554.4	0.96226
1554.6	0.96239
1554.8	0.96251
1555.0	0.96263
1555.2	0.9625
1555.4	0.96237
1555.6	0.96224
1555.8	0.96211
1556.0	0.96197
1556.2	0.96171
1556.4	0.96145
1556.6	0.96119
1556.8	0.96093
1557.0	0.96067
1557.2	0.96051
1557.4	0.96035
1557.6	0.9602
1557.8	0.96004
1558.0	0.95988
1558.2	0.95972
1558.4	0.95956
1558.6	0.9594
1558.8	0.95924
1559.0	0.95907
1559.2	0.95901
1559.4	0.95895
1559.6	0.95888
1559.8	0.95882
1560.0	0.95876
1560.2	0.95846
1560.4	0.95817
1560.6	0.95788
1560.8	0.95759
1561.0	0.95729
1561.2	0.95673
1561.4	0.95616
1561.6	0.9556
1561.8	0.95504
1562.0	0.95447
1562.2	0.95463
1562.4	0.95479
1562.6	0.95495
1562.8	0.95511
1563.0	0.95527
1563.2	0.95494
1563.4	0.95461
1563.6	0.95429
1563.8	0.95396
1564.0	0.95363
1564.2	0.95389
1564.4	0.95414
1564.6	0.9544
1564.8	0.95466
1565.0	0.95491
1565.2	0.95484
1565.4	0.95476
1565.6	0.95469
1565.8	0.95462
1566.0	0.95454
1566.2	0.95448
1566.4	0.95443
1566.6	0.95437
1566.8	0.95431
1567.0	0.95425
1567.2	0.95408
1567.4	0.95392
1567.6	0.95375
1567.8	0.95358
1568.0	0.95341
1568.2	0.9539
1568.4	0.95438
1568.6	0.95487
1568.8	0.95536
1569.0	0.95584
1569.2	0.95581
1569.4	0.95578
1569.6	0.95575
1569.8	0.95572
1570.0	0.95569
1570.2	0.95611
1570.4	0.95653
1570.6	0.95695
1570.8	0.95737
1571.0	0.95779
1571.2	0.95814
1571.4	0.95848
1571.6	0.95882
1571.8	0.95916
1572.0	0.95951
1572.2	0.95975
1572.4	0.96
1572.6	0.96024
1572.8	0.96049
1573.0	0.96073
1573.2	0.96131
1573.4	0.9619
1573.6	0.96248
1573.8	0.96306
1574.0	0.96365
1574.2	0.96387
1574.4	0.96409
1574.6	0.96431
1574.8	0.96453
1575.0	0.96476
1575.2	0.96478
1575.4	0.9648
1575.6	0.96483
1575.8	0.96485
1576.0	0.96487
1576.2	0.96521
1576.4	0.96554
1576.6	0.96587
1576.8	0.96621
1577.0	0.96654
1577.2	0.96661
1577.4	0.96667
1577.6	0.96674
1577.8	0.9668
1578.0	0.96687
1578.2	0.96689
1578.4	0.96691
1578.6	0.96692
1578.8	0.96694
1579.0	0.96696
1579.2	0.96704
1579.4	0.96712
1579.6	0.96719
1579.8	0.96727
1580.0	0.96735
1580.2	0.96753
1580.4	0.96772
1580.6	0.9679
1580.8	0.96809
1581.0	0.96827
1581.2	0.96811
1581.4	0.96795
1581.6	0.96779
1581.8	0.96763
1582.0	0.96747
1582.2	0.96751
1582.4	0.96754
1582.6	0.96758
1582.8	0.96762
1583.0	0.96766
1583.2	0.96725
1583.4	0.96684
1583.6	0.96642
1583.8	0.96601
1584.0	0.9656
1584.2	0.96564
1584.4	0.96568
1584.6	0.96571
1584.8	0.96575
1585.0	0.96579
1585.2	0.96555
1585.4	0.96531
1585.6	0.96507
1585.8	0.96483
1586.0	0.96458
1586.2	0.96437
1586.4	0.96415
1586.6	0.96394
1586.8	0.96372
1587.0	0.96351
1587.2	0.96316
1587.4	0.96281
1587.6	0.96247
1587.8	0.96212
1588.0	0.96177
1588.2	0.96153
1588.4	0.96128
1588.6	0.96104
1588.8	0.9608
1589.0	0.96055
1589.2	0.96083
1589.4	0.9611
1589.6	0.96138
1589.8	0.96166
1590.0	0.96193
1590.2	0.96207
1590.4	0.96221
1590.6	0.96234
1590.8	0.96248
1591.0	0.96261
1591.2	0.96267
1591.4	0.96272
1591.6	0.96277
1591.8	0.96283
1592.0	0.96288
1592.2	0.96277
1592.4	0.96266
1592.6	0.96254
1592.8	0.96243
1593.0	0.96232
1593.2	0.96289
1593.4	0.96347
1593.6	0.96405
1593.8	0.96463
1594.0	0.96521
1594.2	0.96551
1594.4	0.96581
1594.6	0.96611
1594.8	0.96641
1595.0	0.96671
1595.2	0.96677
1595.4	0.96683
1595.6	0.96689
1595.8	0.96695
1596.0	0.96701
1596.2	0.96727
1596.4	0.96753
1596.6	0.96779
1596.8	0.96805
1597.0	0.96831
1597.2	0.9682
1597.4	0.96809
1597.6	0.96797
1597.8	0.96786
1598.0	0.96774
1598.2	0.96806
1598.4	0.96837
1598.6	0.96869
1598.8	0.969
1599.0	0.96932
1599.2	0.96934
1599.4	0.96936
1599.6	0.96939
1599.8	0.96941
1600.0	0.96943
1600.2	0.96893
1600.4	0.96844
1600.6	0.96794
1600.8	0.96744
1601.0	0.96695
1601.2	0.96638
1601.4	0.96582
1601.6	0.96526
1601.8	0.9647
1602.0	0.96413
1602.2	0.96331
1602.4	0.96248
1602.6	0.96166
1602.8	0.96083
1603.0	0.96001
1603.2	0.95867
1603.4	0.95734
1603.6	0.95601
1603.8	0.95468
1604.0	0.95335
1604.2	0.95211
1604.4	0.95088
1604.6	0.94965
1604.8	0.94842
1605.0	0.94719
1605.2	0.94554
1605.4	0.94389
1605.6	0.94225
1605.8	0.94061
1606.0	0.93897
1606.2	0.93692
1606.4	0.93488
1606.6	0.93284
1606.8	0.93081
1607.0	0.92878
1607.2	0.92668
1607.4	0.92458
1607.6	0.92249
1607.8	0.9204
1608.0	0.91832
1608.2	0.9155
1608.4	0.91268
1608.6	0.90987
1608.8	0.90708
1609.0	0.90429
1609.2	0.90151
1609.4	0.89875
1609.6	0.89599
1609.8	0.89325
1610.0	0.89051
